Shape,Label,ShapeLoc,Condition,.thisRepN,.thisTrialN,.thisN,.thisIndex,resp,rt,Exclude,StrangerShape,P1Shape,P2Shape,corr,Training,nCorr,trialinblock,BlankFrames,Block,Pair Number,Participant 1 Age,Participant 2 Age,Phase
Stranger,P2,Top,Mismatch,0,0,0,19,o,0.716866949,0,STAR,TRIANGLE,PENTAGON,1,0,1,1,78,1,1,23,21,1
P1,P1,Top,Match,0,1,1,1,w,0.56684565,0,STAR,TRIANGLE,PENTAGON,1,0,2,2,78,1,1,23,21,1
P1,P1,Top,Match,0,2,2,1,w,0.55016666,0,STAR,TRIANGLE,PENTAGON,1,0,3,3,78,1,1,23,21,1
Stranger,Stranger,Bottom,Match,0,3,3,20,w,0.833512501,0,STAR,TRIANGLE,PENTAGON,1,0,4,4,78,1,1,23,21,1
Stranger,Stranger,Top,Match,0,4,4,17,w,0.650122167,0,STAR,TRIANGLE,PENTAGON,1,0,5,5,78,1,1,23,21,1
P2,P2,Bottom,Match,0,5,5,12,w,0.566810909,0,STAR,TRIANGLE,PENTAGON,1,0,6,6,78,1,1,23,21,1
P2,Stranger,Top,Mismatch,0,6,6,11,w,0.800027003,0,STAR,TRIANGLE,PENTAGON,0,0,6,7,78,1,1,23,21,1
P2,Stranger,Top,Mismatch,0,7,7,11,w,0.600149546,0,STAR,TRIANGLE,PENTAGON,0,0,6,8,78,1,1,23,21,1
P1,P1,Bottom,Match,0,8,8,4,w,0.500430911,0,STAR,TRIANGLE,PENTAGON,1,0,7,9,78,1,1,23,21,1
P2,P1,Top,Mismatch,0,9,9,10,None,None,1,STAR,TRIANGLE,PENTAGON,3,0,7,10,78,1,1,23,21,1
Stranger,Stranger,Top,Match,0,10,10,16,w,0.600170469,0,STAR,TRIANGLE,PENTAGON,1,0,8,11,78,1,1,23,21,1
P1,P1,Top,Match,0,11,11,0,w,0.683540551,0,STAR,TRIANGLE,PENTAGON,1,0,9,12,78,1,1,23,21,1
P1,P2,Bottom,Mismatch,0,12,12,7,o,0.783496453,0,STAR,TRIANGLE,PENTAGON,1,0,10,13,78,1,1,23,21,1
P1,P1,Top,Match,0,13,13,0,w,0.583425549,0,STAR,TRIANGLE,PENTAGON,1,0,11,14,78,1,1,23,21,1
Stranger,Stranger,Top,Match,0,14,14,17,w,0.616844328,0,STAR,TRIANGLE,PENTAGON,1,0,12,15,78,1,1,23,21,1
P1,P1,Top,Match,0,15,15,1,w,0.600136518,0,STAR,TRIANGLE,PENTAGON,1,0,13,16,78,1,1,23,21,1
Stranger,P1,Bottom,Mismatch,0,16,16,22,o,0.650179411,0,STAR,TRIANGLE,PENTAGON,1,0,14,17,78,1,1,23,21,1
P1,P1,Bottom,Match,0,17,17,5,w,0.800193209,0,STAR,TRIANGLE,PENTAGON,1,0,15,18,78,1,1,23,21,1
Stranger,Stranger,Top,Match,0,18,18,16,w,0.616843933,0,STAR,TRIANGLE,PENTAGON,1,0,16,19,78,1,1,23,21,1
Stranger,Stranger,Top,Match,0,19,19,17,w,0.600078089,0,STAR,TRIANGLE,PENTAGON,1,0,17,20,78,1,1,23,21,1
P2,Stranger,Top,Mismatch,0,20,20,11,o,0.766848651,0,STAR,TRIANGLE,PENTAGON,1,0,18,21,78,1,1,23,21,1
P1,P1,Bottom,Match,0,21,21,5,w,0.633760981,0,STAR,TRIANGLE,PENTAGON,1,0,19,22,78,1,1,23,21,1
P1,P2,Top,Mismatch,0,22,22,3,o,0.933460113,0,STAR,TRIANGLE,PENTAGON,1,0,20,23,78,1,1,23,21,1
P2,P2,Top,Match,0,23,23,9,w,0.600138886,0,STAR,TRIANGLE,PENTAGON,1,0,21,24,78,1,1,23,21,1
P2,P1,Bottom,Mismatch,1,0,24,14,w,0.566874075,0,STAR,TRIANGLE,PENTAGON,0,0,21,25,78,1,1,23,21,1
P2,P1,Top,Mismatch,1,1,25,10,None,None,1,STAR,TRIANGLE,PENTAGON,3,0,21,26,78,1,1,23,21,1
P1,Stranger,Top,Mismatch,1,2,26,2,o,1.05014238,0,STAR,TRIANGLE,PENTAGON,1,0,22,27,78,1,1,23,21,1
Stranger,P1,Top,Mismatch,1,3,27,18,o,0.883465383,0,STAR,TRIANGLE,PENTAGON,1,0,23,28,78,1,1,23,21,1
P1,P2,Bottom,Mismatch,1,4,28,7,o,0.967094051,0,STAR,TRIANGLE,PENTAGON,1,0,24,29,78,1,1,23,21,1
Stranger,P1,Top,Mismatch,1,5,29,18,o,0.816793637,0,STAR,TRIANGLE,PENTAGON,1,0,25,30,78,1,1,23,21,1
Stranger,P2,Bottom,Mismatch,1,6,30,23,o,0.600178365,0,STAR,TRIANGLE,PENTAGON,1,0,26,31,78,1,1,23,21,1
P1,P1,Top,Match,1,7,31,1,w,0.61674721,0,STAR,TRIANGLE,PENTAGON,1,0,27,32,78,1,1,23,21,1
Stranger,P2,Top,Mismatch,1,8,32,19,o,0.866783234,0,STAR,TRIANGLE,PENTAGON,1,0,28,33,78,1,1,23,21,1
P2,P2,Top,Match,1,9,33,8,w,0.616805244,0,STAR,TRIANGLE,PENTAGON,1,0,29,34,78,1,1,23,21,1
P2,P2,Bottom,Match,1,10,34,12,w,0.950180951,0,STAR,TRIANGLE,PENTAGON,1,0,30,35,78,1,1,23,21,1
P2,P1,Bottom,Mismatch,1,11,35,14,o,0.700117291,0,STAR,TRIANGLE,PENTAGON,1,0,31,36,78,1,1,23,21,1
Stranger,P2,Bottom,Mismatch,1,12,36,23,o,0.700153217,0,STAR,TRIANGLE,PENTAGON,1,0,32,37,78,1,1,23,21,1
Stranger,Stranger,Top,Match,1,13,37,17,w,0.650198756,0,STAR,TRIANGLE,PENTAGON,1,0,33,38,78,1,1,23,21,1
P2,Stranger,Top,Mismatch,1,14,38,11,o,0.783486189,0,STAR,TRIANGLE,PENTAGON,1,0,34,39,78,1,1,23,21,1
P1,P2,Bottom,Mismatch,1,15,39,7,o,0.683460804,0,STAR,TRIANGLE,PENTAGON,1,0,35,40,78,1,1,23,21,1
P2,P2,Top,Match,1,16,40,8,w,0.800175838,0,STAR,TRIANGLE,PENTAGON,1,0,36,41,78,1,1,23,21,1
P2,Stranger,Bottom,Mismatch,1,17,41,15,o,1.416785267,0,STAR,TRIANGLE,PENTAGON,1,0,37,42,78,1,1,23,21,1
P1,P1,Bottom,Match,1,18,42,5,w,0.550189952,0,STAR,TRIANGLE,PENTAGON,1,0,38,43,78,1,1,23,21,1
Stranger,P1,Top,Mismatch,1,19,43,18,o,0.700183221,0,STAR,TRIANGLE,PENTAGON,1,0,39,44,78,1,1,23,21,1
P2,P2,Bottom,Match,1,20,44,13,w,0.650425759,0,STAR,TRIANGLE,PENTAGON,1,0,40,45,78,1,1,23,21,1
P1,P2,Top,Mismatch,1,21,45,3,o,0.683477385,0,STAR,TRIANGLE,PENTAGON,1,0,41,46,78,1,1,23,21,1
P1,Stranger,Bottom,Mismatch,1,22,46,6,o,1.383454527,0,STAR,TRIANGLE,PENTAGON,1,0,42,47,78,1,1,23,21,1
P2,P1,Bottom,Mismatch,1,23,47,14,o,0.866818765,0,STAR,TRIANGLE,PENTAGON,1,0,43,48,78,1,1,23,21,1
Stranger,P2,Bottom,Mismatch,2,0,48,23,o,0.616836432,0,STAR,TRIANGLE,PENTAGON,1,0,44,49,78,1,1,23,21,1
P2,P2,Bottom,Match,2,1,49,13,w,0.767196459,0,STAR,TRIANGLE,PENTAGON,1,0,45,50,78,1,1,23,21,1
P1,P2,Top,Mismatch,2,2,50,3,o,0.633509106,0,STAR,TRIANGLE,PENTAGON,1,0,46,51,78,1,1,23,21,1
P2,P2,Top,Match,2,3,51,9,w,0.93348459,0,STAR,TRIANGLE,PENTAGON,1,0,47,52,78,1,1,23,21,1
P1,Stranger,Bottom,Mismatch,2,4,52,6,o,1.38351256,0,STAR,TRIANGLE,PENTAGON,1,0,48,53,78,1,1,23,21,1
P1,Stranger,Top,Mismatch,2,5,53,2,o,0.833516844,0,STAR,TRIANGLE,PENTAGON,1,0,49,54,78,1,1,23,21,1
P1,Stranger,Top,Mismatch,2,6,54,2,o,1.066837557,0,STAR,TRIANGLE,PENTAGON,1,0,50,55,78,1,1,23,21,1
Stranger,Stranger,Bottom,Match,2,7,55,21,w,1.216801217,1,STAR,TRIANGLE,PENTAGON,1,0,51,56,78,1,1,23,21,1
P2,P2,Top,Match,2,8,56,9,w,0.666829977,0,STAR,TRIANGLE,PENTAGON,1,0,52,57,78,1,1,23,21,1
P2,P1,Bottom,Mismatch,2,9,57,14,o,0.733496986,0,STAR,TRIANGLE,PENTAGON,1,0,53,58,78,1,1,23,21,1
P1,P1,Bottom,Match,2,10,58,4,w,0.51685171,0,STAR,TRIANGLE,PENTAGON,1,0,54,59,78,1,1,23,21,1
Stranger,Stranger,Bottom,Match,2,11,59,21,w,0.917106427,0,STAR,TRIANGLE,PENTAGON,1,0,55,60,78,1,1,23,21,1
Stranger,P2,Bottom,Mismatch,2,12,60,23,o,0.833769508,0,STAR,TRIANGLE,PENTAGON,1,0,56,61,78,1,1,23,21,1
P2,P1,Bottom,Mismatch,2,13,61,14,o,1.366819357,0,STAR,TRIANGLE,PENTAGON,1,0,57,62,78,1,1,23,21,1
Stranger,Stranger,Top,Match,2,14,62,17,o,0.733501329,0,STAR,TRIANGLE,PENTAGON,0,0,57,63,78,1,1,23,21,1
P2,P1,Top,Mismatch,2,15,63,10,o,1.350144315,0,STAR,TRIANGLE,PENTAGON,1,0,58,64,78,1,1,23,21,1
P2,P1,Top,Mismatch,2,16,64,10,o,0.916820601,0,STAR,TRIANGLE,PENTAGON,1,0,59,65,78,1,1,23,21,1
P1,P1,Bottom,Match,2,17,65,4,w,0.566814857,0,STAR,TRIANGLE,PENTAGON,1,0,60,66,78,1,1,23,21,1
Stranger,Stranger,Bottom,Match,2,18,66,21,w,0.78363147,0,STAR,TRIANGLE,PENTAGON,1,0,61,67,78,1,1,23,21,1
Stranger,P2,Top,Mismatch,2,19,67,19,o,0.783458553,0,STAR,TRIANGLE,PENTAGON,1,0,62,68,78,1,1,23,21,1
P2,Stranger,Bottom,Mismatch,2,20,68,15,o,1.016814403,0,STAR,TRIANGLE,PENTAGON,1,0,63,69,78,1,1,23,21,1
Stranger,Stranger,Bottom,Match,2,21,69,20,w,0.666798789,0,STAR,TRIANGLE,PENTAGON,1,0,64,70,78,1,1,23,21,1
P1,Stranger,Top,Mismatch,2,22,70,2,o,0.633785063,0,STAR,TRIANGLE,PENTAGON,1,0,65,71,78,1,1,23,21,1
P1,P1,Top,Match,2,23,71,0,w,0.583816389,0,STAR,TRIANGLE,PENTAGON,1,0,66,72,78,1,1,23,21,1
P2,P2,Bottom,Match,3,0,72,13,w,0.650455763,0,STAR,TRIANGLE,PENTAGON,1,0,67,73,78,1,1,23,21,1
Stranger,P2,Top,Mismatch,3,1,73,19,o,0.666798394,0,STAR,TRIANGLE,PENTAGON,1,0,68,74,78,1,1,23,21,1
P1,P2,Bottom,Mismatch,3,2,74,7,o,0.866808501,0,STAR,TRIANGLE,PENTAGON,1,0,69,75,78,1,1,23,21,1
P2,P2,Top,Match,3,3,75,8,w,1.300103395,1,STAR,TRIANGLE,PENTAGON,1,0,70,76,78,1,1,23,21,1
P1,P1,Top,Match,3,4,76,0,w,0.650137959,0,STAR,TRIANGLE,PENTAGON,1,0,71,77,78,1,1,23,21,1
P1,P1,Bottom,Match,3,5,77,4,w,0.633472786,0,STAR,TRIANGLE,PENTAGON,1,0,72,78,78,1,1,23,21,1
P2,P2,Top,Match,3,6,78,8,w,0.700130714,0,STAR,TRIANGLE,PENTAGON,1,0,73,79,78,1,1,23,21,1
P2,Stranger,Top,Mismatch,3,7,79,11,o,0.833538557,0,STAR,TRIANGLE,PENTAGON,1,0,74,80,78,1,1,23,21,1
P2,Stranger,Bottom,Mismatch,3,8,80,15,o,0.767129739,0,STAR,TRIANGLE,PENTAGON,1,0,75,81,78,1,1,23,21,1
Stranger,P2,Top,Mismatch,3,9,81,19,o,0.833484076,0,STAR,TRIANGLE,PENTAGON,1,0,76,82,78,1,1,23,21,1
Stranger,Stranger,Bottom,Match,3,10,82,20,w,0.833466311,0,STAR,TRIANGLE,PENTAGON,1,0,77,83,78,1,1,23,21,1
P2,P2,Bottom,Match,3,11,83,13,w,0.86682824,0,STAR,TRIANGLE,PENTAGON,1,0,78,84,78,1,1,23,21,1
Stranger,Stranger,Bottom,Match,3,12,84,20,w,1.450133379,1,STAR,TRIANGLE,PENTAGON,1,0,79,85,78,1,1,23,21,1
P1,P2,Bottom,Mismatch,3,13,85,7,o,1.100090525,0,STAR,TRIANGLE,PENTAGON,1,0,80,86,78,1,1,23,21,1
Stranger,P1,Bottom,Mismatch,3,14,86,22,o,1.15009394,0,STAR,TRIANGLE,PENTAGON,1,0,81,87,78,1,1,23,21,1
P2,Stranger,Bottom,Mismatch,3,15,87,15,o,1.333451506,0,STAR,TRIANGLE,PENTAGON,1,0,82,88,78,1,1,23,21,1
P1,P2,Top,Mismatch,3,16,88,3,o,0.783481451,0,STAR,TRIANGLE,PENTAGON,1,0,83,89,78,1,1,23,21,1
P2,P2,Top,Match,3,17,89,8,w,0.683516074,0,STAR,TRIANGLE,PENTAGON,1,0,84,90,78,1,1,23,21,1
P1,P1,Bottom,Match,3,18,90,4,w,0.666809843,0,STAR,TRIANGLE,PENTAGON,1,0,85,91,78,1,1,23,21,1
Stranger,Stranger,Bottom,Match,3,19,91,21,w,0.683617534,0,STAR,TRIANGLE,PENTAGON,1,0,86,92,78,1,1,23,21,1
Stranger,Stranger,Top,Match,3,20,92,16,w,0.916799282,0,STAR,TRIANGLE,PENTAGON,1,0,87,93,78,1,1,23,21,1
P1,P1,Bottom,Match,3,21,93,5,w,0.716791545,0,STAR,TRIANGLE,PENTAGON,1,0,88,94,78,1,1,23,21,1
P2,P2,Bottom,Match,3,22,94,12,w,0.666867482,0,STAR,TRIANGLE,PENTAGON,1,0,89,95,78,1,1,23,21,1
P2,P1,Top,Mismatch,3,23,95,10,o,0.900131346,0,STAR,TRIANGLE,PENTAGON,1,0,90,96,78,1,1,23,21,1
P2,P2,Bottom,Match,4,0,96,12,w,1.116780175,0,STAR,TRIANGLE,PENTAGON,1,0,91,97,78,1,1,23,21,1
Stranger,P2,Bottom,Mismatch,4,1,97,23,o,1.283438222,0,STAR,TRIANGLE,PENTAGON,1,0,92,98,78,1,1,23,21,1
Stranger,Stranger,Top,Match,4,2,98,16,w,0.900128977,0,STAR,TRIANGLE,PENTAGON,1,0,93,99,78,1,1,23,21,1
P2,Stranger,Bottom,Mismatch,4,3,99,15,o,1.217140734,0,STAR,TRIANGLE,PENTAGON,1,0,94,100,78,1,1,23,21,1
P1,Stranger,Bottom,Mismatch,4,4,100,6,o,0.766833649,0,STAR,TRIANGLE,PENTAGON,1,0,95,101,78,1,1,23,21,1
P1,P1,Bottom,Match,4,5,101,5,w,0.566829464,0,STAR,TRIANGLE,PENTAGON,1,0,96,102,78,1,1,23,21,1
Stranger,Stranger,Bottom,Match,4,6,102,20,w,0.900130951,0,STAR,TRIANGLE,PENTAGON,1,0,97,103,78,1,1,23,21,1
P1,P2,Top,Mismatch,4,7,103,3,o,1.150146447,0,STAR,TRIANGLE,PENTAGON,1,0,98,104,78,1,1,23,21,1
Stranger,P1,Bottom,Mismatch,4,8,104,22,None,None,1,STAR,TRIANGLE,PENTAGON,3,0,98,105,78,1,1,23,21,1
P2,P2,Top,Match,4,9,105,9,w,0.850457184,0,STAR,TRIANGLE,PENTAGON,1,0,99,106,78,1,1,23,21,1
Stranger,Stranger,Top,Match,4,10,106,16,w,0.666829188,0,STAR,TRIANGLE,PENTAGON,1,0,100,107,78,1,1,23,21,1
P2,P2,Bottom,Match,4,11,107,12,w,0.667129226,0,STAR,TRIANGLE,PENTAGON,1,0,101,108,78,1,1,23,21,1
Stranger,P1,Top,Mismatch,4,12,108,18,o,0.983435893,0,STAR,TRIANGLE,PENTAGON,1,0,102,109,78,1,1,23,21,1
P1,P1,Top,Match,4,13,109,0,w,0.616855382,0,STAR,TRIANGLE,PENTAGON,1,0,103,110,78,1,1,23,21,1
P1,Stranger,Bottom,Mismatch,4,14,110,6,None,None,1,STAR,TRIANGLE,PENTAGON,3,0,103,111,78,1,1,23,21,1
P2,P2,Top,Match,4,15,111,9,w,0.63347397,0,STAR,TRIANGLE,PENTAGON,1,0,104,112,78,1,1,23,21,1
P1,Stranger,Bottom,Mismatch,4,16,112,6,o,0.916790597,0,STAR,TRIANGLE,PENTAGON,1,0,105,113,78,1,1,23,21,1
Stranger,Stranger,Bottom,Match,4,17,113,21,w,0.783531589,0,STAR,TRIANGLE,PENTAGON,1,0,106,114,78,1,1,23,21,1
P1,P1,Top,Match,4,18,114,1,w,0.683469094,0,STAR,TRIANGLE,PENTAGON,1,0,107,115,78,1,1,23,21,1
Stranger,P1,Bottom,Mismatch,4,19,115,22,o,0.750125049,0,STAR,TRIANGLE,PENTAGON,1,0,108,116,78,1,1,23,21,1
Stranger,P1,Bottom,Mismatch,4,20,116,22,o,1.033455889,0,STAR,TRIANGLE,PENTAGON,1,0,109,117,78,1,1,23,21,1
P1,Stranger,Top,Mismatch,4,21,117,2,None,None,1,STAR,TRIANGLE,PENTAGON,3,0,109,118,78,1,1,23,21,1
Stranger,P1,Top,Mismatch,4,22,118,18,None,None,1,STAR,TRIANGLE,PENTAGON,3,0,109,119,78,1,1,23,21,1
P2,P2,Bottom,Match,4,23,119,13,w,0.550187978,0,STAR,TRIANGLE,PENTAGON,1,0,110,120,78,1,1,23,21,1
P2,P1,Bottom,Mismatch,0,0,0,14,o,1.083446276,0,STAR,TRIANGLE,PENTAGON,1,0,1,1,78,2,1,23,21,1
P2,P2,Top,Match,0,1,1,8,w,0.650192439,0,STAR,TRIANGLE,PENTAGON,1,0,2,2,78,2,1,23,21,1
P1,Stranger,Top,Mismatch,0,2,2,2,o,0.833492762,0,STAR,TRIANGLE,PENTAGON,1,0,3,3,78,2,1,23,21,1
P2,P2,Bottom,Match,0,3,3,12,w,0.650251657,0,STAR,TRIANGLE,PENTAGON,1,0,4,4,78,2,1,23,21,1
Stranger,P1,Bottom,Mismatch,0,4,4,22,o,0.833495131,0,STAR,TRIANGLE,PENTAGON,1,0,5,5,78,2,1,23,21,1
P1,P1,Top,Match,0,5,5,0,w,0.500448676,0,STAR,TRIANGLE,PENTAGON,1,0,6,6,78,2,1,23,21,1
P2,Stranger,Top,Mismatch,0,6,6,11,o,0.783526062,0,STAR,TRIANGLE,PENTAGON,1,0,7,7,78,2,1,23,21,1
P2,Stranger,Top,Mismatch,0,7,7,11,o,0.84996291,0,STAR,TRIANGLE,PENTAGON,1,0,8,8,78,2,1,23,21,1
Stranger,Stranger,Bottom,Match,0,8,8,20,w,0.616841564,0,STAR,TRIANGLE,PENTAGON,1,0,9,9,78,2,1,23,21,1
P2,P2,Top,Match,0,9,9,8,w,0.600143624,0,STAR,TRIANGLE,PENTAGON,1,0,10,10,78,2,1,23,21,1
P2,Stranger,Bottom,Mismatch,0,10,10,15,o,0.900181484,0,STAR,TRIANGLE,PENTAGON,1,0,11,11,78,2,1,23,21,1
P2,P2,Bottom,Match,0,11,11,12,w,0.550192716,0,STAR,TRIANGLE,PENTAGON,1,0,12,12,78,2,1,23,21,1
Stranger,Stranger,Bottom,Match,0,12,12,21,w,0.750182688,0,STAR,TRIANGLE,PENTAGON,1,0,13,13,78,2,1,23,21,1
Stranger,P2,Bottom,Mismatch,0,13,13,23,o,0.967112606,0,STAR,TRIANGLE,PENTAGON,1,0,14,14,78,2,1,23,21,1
P2,P2,Top,Match,0,14,14,9,w,0.633509501,0,STAR,TRIANGLE,PENTAGON,1,0,15,15,78,2,1,23,21,1
P1,Stranger,Bottom,Mismatch,0,15,15,6,o,1.266770285,0,STAR,TRIANGLE,PENTAGON,1,0,16,16,78,2,1,23,21,1
Stranger,Stranger,Bottom,Match,0,16,16,20,w,0.96689942,0,STAR,TRIANGLE,PENTAGON,1,0,17,17,78,2,1,23,21,1
Stranger,P2,Bottom,Mismatch,0,17,17,23,o,0.783574621,0,STAR,TRIANGLE,PENTAGON,1,0,18,18,78,2,1,23,21,1
Stranger,P1,Top,Mismatch,0,18,18,18,o,0.683474226,0,STAR,TRIANGLE,PENTAGON,1,0,19,19,78,2,1,23,21,1
Stranger,Stranger,Bottom,Match,0,19,19,21,w,0.833479339,0,STAR,TRIANGLE,PENTAGON,1,0,20,20,78,2,1,23,21,1
P1,P1,Bottom,Match,0,20,20,5,w,0.583465818,0,STAR,TRIANGLE,PENTAGON,1,0,21,21,78,2,1,23,21,1
P1,P1,Bottom,Match,0,21,21,4,w,0.667120541,0,STAR,TRIANGLE,PENTAGON,1,0,22,22,78,2,1,23,21,1
P1,P2,Top,Mismatch,0,22,22,3,o,0.700113344,0,STAR,TRIANGLE,PENTAGON,1,0,23,23,78,2,1,23,21,1
P2,Stranger,Bottom,Mismatch,0,23,23,15,o,0.916822575,0,STAR,TRIANGLE,PENTAGON,1,0,24,24,78,2,1,23,21,1
Stranger,Stranger,Bottom,Match,1,0,24,21,w,0.650157698,0,STAR,TRIANGLE,PENTAGON,1,0,25,25,78,2,1,23,21,1
P1,P1,Top,Match,1,1,25,1,w,1.050147512,0,STAR,TRIANGLE,PENTAGON,1,0,26,26,78,2,1,23,21,1
P1,P1,Top,Match,1,2,26,0,w,0.700137426,0,STAR,TRIANGLE,PENTAGON,1,0,27,27,78,2,1,23,21,1
P2,P2,Top,Match,1,3,27,8,w,0.550144157,0,STAR,TRIANGLE,PENTAGON,1,0,28,28,78,2,1,23,21,1
P1,P1,Top,Match,1,4,28,1,o,0.833471443,0,STAR,TRIANGLE,PENTAGON,0,0,28,29,78,2,1,23,21,1
Stranger,P1,Top,Mismatch,1,5,29,18,o,1.000179234,0,STAR,TRIANGLE,PENTAGON,1,0,29,30,78,2,1,23,21,1
Stranger,P2,Top,Mismatch,1,6,30,19,o,1.13343232,0,STAR,TRIANGLE,PENTAGON,1,0,30,31,78,2,1,23,21,1
Stranger,P1,Bottom,Mismatch,1,7,31,22,o,0.750132155,0,STAR,TRIANGLE,PENTAGON,1,0,31,32,78,2,1,23,21,1
P1,P2,Bottom,Mismatch,1,8,32,7,None,None,1,STAR,TRIANGLE,PENTAGON,3,0,31,33,78,2,1,23,21,1
P1,P1,Bottom,Match,1,9,33,5,w,0.750161369,0,STAR,TRIANGLE,PENTAGON,1,0,32,34,78,2,1,23,21,1
Stranger,P1,Top,Mismatch,1,10,34,18,o,0.783490136,0,STAR,TRIANGLE,PENTAGON,1,0,33,35,78,2,1,23,21,1
P2,P2,Bottom,Match,1,11,35,12,w,0.550193505,0,STAR,TRIANGLE,PENTAGON,1,0,34,36,78,2,1,23,21,1
P2,P2,Top,Match,1,12,36,9,w,0.650127694,0,STAR,TRIANGLE,PENTAGON,1,0,35,37,78,2,1,23,21,1
P2,P2,Bottom,Match,1,13,37,13,w,0.533543729,0,STAR,TRIANGLE,PENTAGON,1,0,36,38,78,2,1,23,21,1
Stranger,Stranger,Top,Match,1,14,38,16,w,0.616900782,0,STAR,TRIANGLE,PENTAGON,1,0,37,39,78,2,1,23,21,1
Stranger,P2,Top,Mismatch,1,15,39,19,o,0.866785998,0,STAR,TRIANGLE,PENTAGON,1,0,38,40,78,2,1,23,21,1
P1,P2,Bottom,Mismatch,1,16,40,7,o,0.966790459,0,STAR,TRIANGLE,PENTAGON,1,0,39,41,78,2,1,23,21,1
P1,P1,Bottom,Match,1,17,41,4,w,0.483472805,0,STAR,TRIANGLE,PENTAGON,1,0,40,42,78,2,1,23,21,1
P2,P2,Bottom,Match,1,18,42,13,w,0.566846835,0,STAR,TRIANGLE,PENTAGON,1,0,41,43,78,2,1,23,21,1
Stranger,P2,Top,Mismatch,1,19,43,19,o,0.650147828,0,STAR,TRIANGLE,PENTAGON,1,0,42,44,78,2,1,23,21,1
P1,Stranger,Top,Mismatch,1,20,44,2,o,1.050108034,0,STAR,TRIANGLE,PENTAGON,1,0,43,45,78,2,1,23,21,1
P2,P2,Top,Match,1,21,45,9,w,0.85006437,0,STAR,TRIANGLE,PENTAGON,1,0,44,46,78,2,1,23,21,1
P1,P1,Bottom,Match,1,22,46,4,w,0.650179016,0,STAR,TRIANGLE,PENTAGON,1,0,45,47,78,2,1,23,21,1
P1,P1,Top,Match,1,23,47,1,w,0.633498447,0,STAR,TRIANGLE,PENTAGON,1,0,46,48,78,2,1,23,21,1
Stranger,Stranger,Top,Match,2,0,48,16,w,0.516966593,0,STAR,TRIANGLE,PENTAGON,1,0,47,49,78,2,1,23,21,1
P2,Stranger,Bottom,Mismatch,2,1,49,15,o,0.800150967,0,STAR,TRIANGLE,PENTAGON,1,0,48,50,78,2,1,23,21,1
Stranger,P1,Bottom,Mismatch,2,2,50,22,o,1.000150809,0,STAR,TRIANGLE,PENTAGON,1,0,49,51,78,2,1,23,21,1
P2,P1,Top,Mismatch,2,3,51,10,o,0.733464219,0,STAR,TRIANGLE,PENTAGON,1,0,50,52,78,2,1,23,21,1
P2,P1,Bottom,Mismatch,2,4,52,14,o,0.900170825,0,STAR,TRIANGLE,PENTAGON,1,0,51,53,78,2,1,23,21,1
P2,P2,Bottom,Match,2,5,53,12,w,0.650176253,0,STAR,TRIANGLE,PENTAGON,1,0,52,54,78,2,1,23,21,1
P1,Stranger,Top,Mismatch,2,6,54,2,o,0.850092795,0,STAR,TRIANGLE,PENTAGON,1,0,53,55,78,2,1,23,21,1
P1,P2,Top,Mismatch,2,7,55,3,o,1.133482063,0,STAR,TRIANGLE,PENTAGON,1,0,54,56,78,2,1,23,21,1
P2,P1,Top,Mismatch,2,8,56,10,o,0.800221239,0,STAR,TRIANGLE,PENTAGON,1,0,55,57,78,2,1,23,21,1
P1,P1,Bottom,Match,2,9,57,5,w,0.533538597,0,STAR,TRIANGLE,PENTAGON,1,0,56,58,78,2,1,23,21,1
P1,P1,Top,Match,2,10,58,0,w,0.633511475,0,STAR,TRIANGLE,PENTAGON,1,0,57,59,78,2,1,23,21,1
P2,P1,Top,Mismatch,2,11,59,10,o,0.8168722,0,STAR,TRIANGLE,PENTAGON,1,0,58,60,78,2,1,23,21,1
Stranger,Stranger,Bottom,Match,2,12,60,21,w,0.716859053,0,STAR,TRIANGLE,PENTAGON,1,0,59,61,78,2,1,23,21,1
P1,P2,Bottom,Mismatch,2,13,61,7,o,0.833476575,0,STAR,TRIANGLE,PENTAGON,1,0,60,62,78,2,1,23,21,1
Stranger,Stranger,Top,Match,2,14,62,16,w,0.81678811,0,STAR,TRIANGLE,PENTAGON,1,0,61,63,78,2,1,23,21,1
P2,P1,Bottom,Mismatch,2,15,63,14,o,1.18344521,0,STAR,TRIANGLE,PENTAGON,1,0,62,64,78,2,1,23,21,1
P1,Stranger,Bottom,Mismatch,2,16,64,6,o,0.833470654,0,STAR,TRIANGLE,PENTAGON,1,0,63,65,78,2,1,23,21,1
P1,P2,Bottom,Mismatch,2,17,65,7,o,0.800156494,0,STAR,TRIANGLE,PENTAGON,1,0,64,66,78,2,1,23,21,1
Stranger,Stranger,Bottom,Match,2,18,66,20,w,0.566881576,0,STAR,TRIANGLE,PENTAGON,1,0,65,67,78,2,1,23,21,1
Stranger,P1,Bottom,Mismatch,2,19,67,22,o,0.800178602,0,STAR,TRIANGLE,PENTAGON,1,0,66,68,78,2,1,23,21,1
Stranger,Stranger,Top,Match,2,20,68,16,w,1.2501363,1,STAR,TRIANGLE,PENTAGON,1,0,67,69,78,2,1,23,21,1
P1,Stranger,Bottom,Mismatch,2,21,69,6,o,0.983746591,0,STAR,TRIANGLE,PENTAGON,1,0,68,70,78,2,1,23,21,1
P2,Stranger,Top,Mismatch,2,22,70,11,o,1.100119344,0,STAR,TRIANGLE,PENTAGON,1,0,69,71,78,2,1,23,21,1
Stranger,P1,Top,Mismatch,2,23,71,18,o,1.050224891,0,STAR,TRIANGLE,PENTAGON,1,0,70,72,78,2,1,23,21,1
Stranger,Stranger,Bottom,Match,3,0,72,20,w,0.6168313,0,STAR,TRIANGLE,PENTAGON,1,0,71,73,78,2,1,23,21,1
Stranger,P2,Bottom,Mismatch,3,1,73,23,o,0.783477108,0,STAR,TRIANGLE,PENTAGON,1,0,72,74,78,2,1,23,21,1
P2,Stranger,Bottom,Mismatch,3,2,74,15,o,0.850155961,0,STAR,TRIANGLE,PENTAGON,1,0,73,75,78,2,1,23,21,1
P2,Stranger,Top,Mismatch,3,3,75,11,o,0.966809409,0,STAR,TRIANGLE,PENTAGON,1,0,74,76,78,2,1,23,21,1
P1,P2,Bottom,Mismatch,3,4,76,7,None,None,1,STAR,TRIANGLE,PENTAGON,3,0,74,77,78,2,1,23,21,1
P1,P2,Top,Mismatch,3,5,77,3,o,0.833440255,0,STAR,TRIANGLE,PENTAGON,1,0,75,78,78,2,1,23,21,1
P2,P2,Top,Match,3,6,78,9,w,0.666810633,0,STAR,TRIANGLE,PENTAGON,1,0,76,79,78,2,1,23,21,1
P1,P1,Bottom,Match,3,7,79,5,w,0.433472943,0,STAR,TRIANGLE,PENTAGON,1,0,77,80,78,2,1,23,21,1
P2,P2,Top,Match,3,8,80,8,w,0.633478313,0,STAR,TRIANGLE,PENTAGON,1,0,78,81,78,2,1,23,21,1
P1,P1,Top,Match,3,9,81,1,w,0.550196269,0,STAR,TRIANGLE,PENTAGON,1,0,79,82,78,2,1,23,21,1
P2,Stranger,Bottom,Mismatch,3,10,82,15,o,0.95011818,0,STAR,TRIANGLE,PENTAGON,1,0,80,83,78,2,1,23,21,1
Stranger,Stranger,Bottom,Match,3,11,83,20,w,0.683469489,0,STAR,TRIANGLE,PENTAGON,1,0,81,84,78,2,1,23,21,1
Stranger,P1,Bottom,Mismatch,3,12,84,22,o,0.816805875,0,STAR,TRIANGLE,PENTAGON,1,0,82,85,78,2,1,23,21,1
P2,P1,Bottom,Mismatch,3,13,85,14,o,0.933450243,0,STAR,TRIANGLE,PENTAGON,1,0,83,86,78,2,1,23,21,1
P2,P2,Top,Match,3,14,86,8,w,0.716767068,0,STAR,TRIANGLE,PENTAGON,1,0,84,87,78,2,1,23,21,1
Stranger,P2,Bottom,Mismatch,3,15,87,23,o,0.966860336,0,STAR,TRIANGLE,PENTAGON,1,0,85,88,78,2,1,23,21,1
P2,P2,Bottom,Match,3,16,88,13,w,1.066824924,0,STAR,TRIANGLE,PENTAGON,1,0,86,89,78,2,1,23,21,1
P1,Stranger,Top,Mismatch,3,17,89,2,o,1.066827293,0,STAR,TRIANGLE,PENTAGON,1,0,87,90,78,2,1,23,21,1
P2,P2,Top,Match,3,18,90,9,w,0.600078089,0,STAR,TRIANGLE,PENTAGON,1,0,88,91,78,2,1,23,21,1
Stranger,Stranger,Top,Match,3,19,91,17,w,0.73354594,0,STAR,TRIANGLE,PENTAGON,1,0,89,92,78,2,1,23,21,1
Stranger,P1,Top,Mismatch,3,20,92,18,o,0.966793617,0,STAR,TRIANGLE,PENTAGON,1,0,90,93,78,2,1,23,21,1
P1,P2,Top,Mismatch,3,21,93,3,o,1.366822121,0,STAR,TRIANGLE,PENTAGON,1,0,91,94,78,2,1,23,21,1
Stranger,Stranger,Bottom,Match,3,22,94,21,w,0.700125582,0,STAR,TRIANGLE,PENTAGON,1,0,92,95,78,2,1,23,21,1
P1,P1,Bottom,Match,3,23,95,4,w,0.633468443,0,STAR,TRIANGLE,PENTAGON,1,0,93,96,78,2,1,23,21,1
Stranger,P2,Top,Mismatch,4,0,96,19,o,0.766828122,0,STAR,TRIANGLE,PENTAGON,1,0,94,97,78,2,1,23,21,1
P2,Stranger,Top,Mismatch,4,1,97,11,o,1.033500894,0,STAR,TRIANGLE,PENTAGON,1,0,95,98,78,2,1,23,21,1
Stranger,Stranger,Top,Match,4,2,98,17,w,0.75013255,0,STAR,TRIANGLE,PENTAGON,1,0,96,99,78,2,1,23,21,1
Stranger,Stranger,Top,Match,4,3,99,17,w,0.566799065,0,STAR,TRIANGLE,PENTAGON,1,0,97,100,78,2,1,23,21,1
Stranger,P2,Top,Mismatch,4,4,100,19,o,0.866826661,0,STAR,TRIANGLE,PENTAGON,1,0,98,101,78,2,1,23,21,1
P1,P1,Top,Match,4,5,101,1,w,0.566893814,0,STAR,TRIANGLE,PENTAGON,1,0,99,102,78,2,1,23,21,1
P1,P1,Bottom,Match,4,6,102,4,w,0.666820502,0,STAR,TRIANGLE,PENTAGON,1,0,100,103,78,2,1,23,21,1
P2,P2,Bottom,Match,4,7,103,13,w,0.766824569,0,STAR,TRIANGLE,PENTAGON,1,0,101,104,78,2,1,23,21,1
P1,P1,Top,Match,4,8,104,0,w,0.5835353,0,STAR,TRIANGLE,PENTAGON,1,0,102,105,78,2,1,23,21,1
Stranger,Stranger,Top,Match,4,9,105,16,w,0.933892405,0,STAR,TRIANGLE,PENTAGON,1,0,103,106,78,2,1,23,21,1
Stranger,P2,Bottom,Mismatch,4,10,106,23,o,0.883514337,0,STAR,TRIANGLE,PENTAGON,1,0,104,107,78,2,1,23,21,1
P1,Stranger,Bottom,Mismatch,4,11,107,6,o,0.900122661,0,STAR,TRIANGLE,PENTAGON,1,0,105,108,78,2,1,23,21,1
P1,P1,Top,Match,4,12,108,0,w,0.583502138,0,STAR,TRIANGLE,PENTAGON,1,0,106,109,78,2,1,23,21,1
P1,Stranger,Bottom,Mismatch,4,13,109,6,o,0.933475904,0,STAR,TRIANGLE,PENTAGON,1,0,107,110,78,2,1,23,21,1
Stranger,Stranger,Top,Match,4,14,110,17,w,0.750130181,0,STAR,TRIANGLE,PENTAGON,1,0,108,111,78,2,1,23,21,1
P1,P2,Top,Mismatch,4,15,111,3,o,0.983467081,0,STAR,TRIANGLE,PENTAGON,1,0,109,112,78,2,1,23,21,1
Stranger,Stranger,Top,Match,4,16,112,17,w,0.600129411,0,STAR,TRIANGLE,PENTAGON,1,0,110,113,78,2,1,23,21,1
P2,P2,Bottom,Match,4,17,113,13,w,0.683497519,0,STAR,TRIANGLE,PENTAGON,1,0,111,114,78,2,1,23,21,1
P2,P1,Top,Mismatch,4,18,114,10,o,1.133477326,0,STAR,TRIANGLE,PENTAGON,1,0,112,115,78,2,1,23,21,1
P1,P1,Bottom,Match,4,19,115,5,w,0.650161646,0,STAR,TRIANGLE,PENTAGON,1,0,113,116,78,2,1,23,21,1
P1,Stranger,Top,Mismatch,4,20,116,2,o,0.733885062,0,STAR,TRIANGLE,PENTAGON,1,0,114,117,78,2,1,23,21,1
P2,P1,Bottom,Mismatch,4,21,117,14,o,1.200038926,0,STAR,TRIANGLE,PENTAGON,1,0,115,118,78,2,1,23,21,1
P2,P1,Top,Mismatch,4,22,118,10,o,0.750120706,0,STAR,TRIANGLE,PENTAGON,1,0,116,119,78,2,1,23,21,1
P2,P2,Bottom,Match,4,23,119,12,o,0.716861817,0,STAR,TRIANGLE,PENTAGON,0,0,116,120,78,2,1,23,21,1
Stranger,P2,Top,Mismatch,0,0,0,19,o,0.850130694,0,TRIANGLE,PENTAGON,STAR,1,0,1,1,78,3,1,23,21,2
P2,Stranger,Top,Mismatch,0,1,1,11,o,0.916842709,0,TRIANGLE,PENTAGON,STAR,1,0,2,2,78,3,1,23,21,2
P1,P1,Bottom,Match,0,2,2,5,w,0.666867087,0,TRIANGLE,PENTAGON,STAR,1,0,3,3,78,3,1,23,21,2
Stranger,P1,Top,Mismatch,0,3,3,18,o,0.883509994,0,TRIANGLE,PENTAGON,STAR,1,0,4,4,78,3,1,23,21,2
Stranger,P2,Bottom,Mismatch,0,4,4,23,o,0.716838524,0,TRIANGLE,PENTAGON,STAR,1,0,5,5,78,3,1,23,21,2
P1,P1,Top,Match,0,5,5,0,w,0.733594104,0,TRIANGLE,PENTAGON,STAR,1,0,6,6,78,3,1,23,21,2
P2,P2,Top,Match,0,6,6,8,w,0.68350581,0,TRIANGLE,PENTAGON,STAR,1,0,7,7,78,3,1,23,21,2
P1,P1,Bottom,Match,0,7,7,5,w,0.650157303,0,TRIANGLE,PENTAGON,STAR,1,0,8,8,78,3,1,23,21,2
P1,P1,Bottom,Match,0,8,8,5,w,0.516815785,0,TRIANGLE,PENTAGON,STAR,1,0,9,9,78,3,1,23,21,2
Stranger,Stranger,Top,Match,0,9,9,16,o,0.866798631,0,TRIANGLE,PENTAGON,STAR,0,0,9,10,78,3,1,23,21,2
Stranger,Stranger,Bottom,Match,0,10,10,21,w,0.466812764,0,TRIANGLE,PENTAGON,STAR,1,0,10,11,78,3,1,23,21,2
P2,P2,Bottom,Match,0,11,11,13,w,0.583483188,0,TRIANGLE,PENTAGON,STAR,1,0,11,12,78,3,1,23,21,2
P1,P1,Bottom,Match,0,12,12,5,w,0.533474641,0,TRIANGLE,PENTAGON,STAR,1,0,12,13,78,3,1,23,21,2
P2,P2,Bottom,Match,0,13,13,12,w,0.783510665,0,TRIANGLE,PENTAGON,STAR,1,0,13,14,78,3,1,23,21,2
Stranger,P2,Top,Mismatch,0,14,14,19,o,0.850137801,0,TRIANGLE,PENTAGON,STAR,1,0,14,15,78,3,1,23,21,2
P2,P2,Bottom,Match,0,15,15,12,w,0.533468719,0,TRIANGLE,PENTAGON,STAR,1,0,15,16,78,3,1,23,21,2
Stranger,Stranger,Bottom,Match,0,16,16,21,w,0.750584187,0,TRIANGLE,PENTAGON,STAR,1,0,16,17,78,3,1,23,21,2
P2,P1,Top,Mismatch,0,17,17,10,w,0.850174121,0,TRIANGLE,PENTAGON,STAR,0,0,16,18,78,3,1,23,21,2
P2,P1,Bottom,Mismatch,0,18,18,14,o,0.766827332,0,TRIANGLE,PENTAGON,STAR,1,0,17,19,78,3,1,23,21,2
P2,Stranger,Bottom,Mismatch,0,19,19,15,o,0.933445111,0,TRIANGLE,PENTAGON,STAR,1,0,18,20,78,3,1,23,21,2
P1,P2,Top,Mismatch,0,20,20,3,o,0.867049321,0,TRIANGLE,PENTAGON,STAR,1,0,19,21,78,3,1,23,21,2
P2,P2,Top,Match,0,21,21,9,w,1.066847427,0,TRIANGLE,PENTAGON,STAR,1,0,20,22,78,3,1,23,21,2
P2,Stranger,Top,Mismatch,0,22,22,11,o,1.000123569,0,TRIANGLE,PENTAGON,STAR,1,0,21,23,78,3,1,23,21,2
P2,P2,Bottom,Match,0,23,23,13,w,0.767098156,0,TRIANGLE,PENTAGON,STAR,1,0,22,24,78,3,1,23,21,2
P2,P2,Top,Match,1,0,24,9,w,0.583455948,0,TRIANGLE,PENTAGON,STAR,1,0,23,25,78,3,1,23,21,2
P1,Stranger,Bottom,Mismatch,1,1,25,6,o,1.000134623,0,TRIANGLE,PENTAGON,STAR,1,0,24,26,78,3,1,23,21,2
Stranger,P1,Bottom,Mismatch,1,2,26,22,o,1.200101697,0,TRIANGLE,PENTAGON,STAR,1,0,25,27,78,3,1,23,21,2
Stranger,Stranger,Top,Match,1,3,27,16,w,0.783458553,0,TRIANGLE,PENTAGON,STAR,1,0,26,28,78,3,1,23,21,2
P1,P2,Top,Mismatch,1,4,28,3,o,0.916795729,0,TRIANGLE,PENTAGON,STAR,1,0,27,29,78,3,1,23,21,2
Stranger,P2,Bottom,Mismatch,1,5,29,23,o,1.00012041,0,TRIANGLE,PENTAGON,STAR,1,0,28,30,78,3,1,23,21,2
P1,P1,Top,Match,1,6,30,0,w,0.816808639,0,TRIANGLE,PENTAGON,STAR,1,0,29,31,78,3,1,23,21,2
Stranger,P2,Top,Mismatch,1,7,31,19,o,0.900131346,0,TRIANGLE,PENTAGON,STAR,1,0,30,32,78,3,1,23,21,2
P1,P1,Bottom,Match,1,8,32,5,w,0.833473022,0,TRIANGLE,PENTAGON,STAR,1,0,31,33,78,3,1,23,21,2
P2,P2,Bottom,Match,1,9,33,13,w,0.716832603,0,TRIANGLE,PENTAGON,STAR,1,0,32,34,78,3,1,23,21,2
P2,P2,Top,Match,1,10,34,9,w,0.850202941,0,TRIANGLE,PENTAGON,STAR,1,0,33,35,78,3,1,23,21,2
P1,P2,Bottom,Mismatch,1,11,35,7,o,0.850167015,0,TRIANGLE,PENTAGON,STAR,1,0,34,36,78,3,1,23,21,2
Stranger,Stranger,Top,Match,1,12,36,16,w,0.71707974,0,TRIANGLE,PENTAGON,STAR,1,0,35,37,78,3,1,23,21,2
P2,P2,Bottom,Match,1,13,37,12,w,0.666798394,0,TRIANGLE,PENTAGON,STAR,1,0,36,38,78,3,1,23,21,2
P2,P2,Top,Match,1,14,38,8,w,0.666866692,0,TRIANGLE,PENTAGON,STAR,1,0,37,39,78,3,1,23,21,2
Stranger,P1,Top,Mismatch,1,15,39,18,o,1.466798947,0,TRIANGLE,PENTAGON,STAR,1,0,38,40,78,3,1,23,21,2
P1,Stranger,Bottom,Mismatch,1,16,40,6,o,1.100151322,0,TRIANGLE,PENTAGON,STAR,1,0,39,41,78,3,1,23,21,2
P2,Stranger,Top,Mismatch,1,17,41,11,o,0.933485774,0,TRIANGLE,PENTAGON,STAR,1,0,40,42,78,3,1,23,21,2
Stranger,Stranger,Bottom,Match,1,18,42,21,w,0.58380494,0,TRIANGLE,PENTAGON,STAR,1,0,41,43,78,3,1,23,21,2
P1,Stranger,Top,Mismatch,1,19,43,2,o,1.000141729,0,TRIANGLE,PENTAGON,STAR,1,0,42,44,78,3,1,23,21,2
P2,P1,Bottom,Mismatch,1,20,44,14,o,0.733487116,0,TRIANGLE,PENTAGON,STAR,1,0,43,45,78,3,1,23,21,2
P2,P2,Bottom,Match,1,21,45,12,w,0.767099341,0,TRIANGLE,PENTAGON,STAR,1,0,44,46,78,3,1,23,21,2
Stranger,Stranger,Top,Match,1,22,46,16,w,1.01683888,0,TRIANGLE,PENTAGON,STAR,1,0,45,47,78,3,1,23,21,2
Stranger,Stranger,Bottom,Match,1,23,47,21,w,0.550169028,0,TRIANGLE,PENTAGON,STAR,1,0,46,48,78,3,1,23,21,2
P2,Stranger,Bottom,Mismatch,2,0,48,15,o,0.717034734,0,TRIANGLE,PENTAGON,STAR,1,0,47,49,78,3,1,23,21,2
P1,P2,Bottom,Mismatch,2,1,49,7,o,0.983470634,0,TRIANGLE,PENTAGON,STAR,1,0,48,50,78,3,1,23,21,2
Stranger,Stranger,Bottom,Match,2,2,50,20,w,1.116765173,0,TRIANGLE,PENTAGON,STAR,1,0,49,51,78,3,1,23,21,2
P1,Stranger,Bottom,Mismatch,2,3,51,6,o,0.733457902,0,TRIANGLE,PENTAGON,STAR,1,0,50,52,78,3,1,23,21,2
Stranger,Stranger,Bottom,Match,2,4,52,20,w,0.55012876,0,TRIANGLE,PENTAGON,STAR,1,0,51,53,78,3,1,23,21,2
P1,Stranger,Top,Mismatch,2,5,53,2,o,0.86680929,0,TRIANGLE,PENTAGON,STAR,1,0,52,54,78,3,1,23,21,2
P2,Stranger,Top,Mismatch,2,6,54,11,o,1.250170647,0,TRIANGLE,PENTAGON,STAR,1,0,53,55,78,3,1,23,21,2
P1,P1,Bottom,Match,2,7,55,4,w,0.583529773,0,TRIANGLE,PENTAGON,STAR,1,0,54,56,78,3,1,23,21,2
P1,P2,Bottom,Mismatch,2,8,56,7,o,0.800416659,0,TRIANGLE,PENTAGON,STAR,1,0,55,57,78,3,1,23,21,2
Stranger,Stranger,Top,Match,2,9,57,17,w,0.816882859,0,TRIANGLE,PENTAGON,STAR,1,0,56,58,78,3,1,23,21,2
Stranger,P1,Bottom,Mismatch,2,10,58,22,o,1.233470733,0,TRIANGLE,PENTAGON,STAR,1,0,57,59,78,3,1,23,21,2
P1,Stranger,Top,Mismatch,2,11,59,2,o,1.083458119,0,TRIANGLE,PENTAGON,STAR,1,0,58,60,78,3,1,23,21,2
P1,Stranger,Top,Mismatch,2,12,60,2,o,1.016779267,0,TRIANGLE,PENTAGON,STAR,1,0,59,61,78,3,1,23,21,2
P1,P1,Top,Match,2,13,61,1,w,0.967074706,0,TRIANGLE,PENTAGON,STAR,1,0,60,62,78,3,1,23,21,2
P2,Stranger,Bottom,Mismatch,2,14,62,15,o,0.766788248,0,TRIANGLE,PENTAGON,STAR,1,0,61,63,78,3,1,23,21,2
P1,P1,Top,Match,2,15,63,1,w,0.750072147,0,TRIANGLE,PENTAGON,STAR,1,0,62,64,78,3,1,23,21,2
P2,P1,Top,Mismatch,2,16,64,10,o,0.783497637,0,TRIANGLE,PENTAGON,STAR,1,0,63,65,78,3,1,23,21,2
P2,P2,Bottom,Match,2,17,65,13,w,0.700160323,0,TRIANGLE,PENTAGON,STAR,1,0,64,66,78,3,1,23,21,2
P1,P1,Top,Match,2,18,66,1,w,0.61684038,0,TRIANGLE,PENTAGON,STAR,1,0,65,67,78,3,1,23,21,2
Stranger,P1,Top,Mismatch,2,19,67,18,o,0.900128977,0,TRIANGLE,PENTAGON,STAR,1,0,66,68,78,3,1,23,21,2
Stranger,Stranger,Top,Match,2,20,68,17,w,0.883526575,0,TRIANGLE,PENTAGON,STAR,1,0,67,69,78,3,1,23,21,2
P2,P1,Bottom,Mismatch,2,21,69,14,o,0.766826543,0,TRIANGLE,PENTAGON,STAR,1,0,68,70,78,3,1,23,21,2
P2,Stranger,Top,Mismatch,2,22,70,11,w,0.683472647,0,TRIANGLE,PENTAGON,STAR,0,0,68,71,78,3,1,23,21,2
Stranger,Stranger,Bottom,Match,2,23,71,20,w,0.766809961,0,TRIANGLE,PENTAGON,STAR,1,0,69,72,78,3,1,23,21,2
P1,P2,Bottom,Mismatch,3,0,72,7,o,0.883489071,0,TRIANGLE,PENTAGON,STAR,1,0,70,73,78,3,1,23,21,2
P2,P1,Top,Mismatch,3,1,73,10,o,1.116823601,0,TRIANGLE,PENTAGON,STAR,1,0,71,74,78,3,1,23,21,2
Stranger,P2,Bottom,Mismatch,3,2,74,23,o,0.850543642,0,TRIANGLE,PENTAGON,STAR,1,0,72,75,78,3,1,23,21,2
P1,Stranger,Bottom,Mismatch,3,3,75,6,None,None,1,TRIANGLE,PENTAGON,STAR,3,0,72,76,78,3,1,23,21,2
Stranger,P1,Top,Mismatch,3,4,76,18,w,0.800142281,0,TRIANGLE,PENTAGON,STAR,0,0,72,77,78,3,1,23,21,2
Stranger,Stranger,Top,Match,3,5,77,17,w,0.983588675,0,TRIANGLE,PENTAGON,STAR,1,0,73,78,78,3,1,23,21,2
P1,P1,Bottom,Match,3,6,78,4,w,0.666892748,0,TRIANGLE,PENTAGON,STAR,1,0,74,79,78,3,1,23,21,2
P1,P1,Bottom,Match,3,7,79,4,w,0.600166521,0,TRIANGLE,PENTAGON,STAR,1,0,75,80,78,3,1,23,21,2
P2,P1,Bottom,Mismatch,3,8,80,14,o,0.733496986,0,TRIANGLE,PENTAGON,STAR,1,0,76,81,78,3,1,23,21,2
P2,P2,Top,Match,3,9,81,9,w,0.800182155,0,TRIANGLE,PENTAGON,STAR,1,0,77,82,78,3,1,23,21,2
P1,P2,Top,Mismatch,3,10,82,3,o,0.850162672,0,TRIANGLE,PENTAGON,STAR,1,0,78,83,78,3,1,23,21,2
P1,P1,Bottom,Match,3,11,83,4,w,0.750556157,0,TRIANGLE,PENTAGON,STAR,1,0,79,84,78,3,1,23,21,2
Stranger,P1,Bottom,Mismatch,3,12,84,22,o,0.86681008,0,TRIANGLE,PENTAGON,STAR,1,0,80,85,78,3,1,23,21,2
Stranger,P2,Bottom,Mismatch,3,13,85,23,o,0.966823621,0,TRIANGLE,PENTAGON,STAR,1,0,81,86,78,3,1,23,21,2
P2,P1,Top,Mismatch,3,14,86,10,o,0.900040939,0,TRIANGLE,PENTAGON,STAR,1,0,82,87,78,3,1,23,21,2
Stranger,Stranger,Bottom,Match,3,15,87,20,w,0.716844051,0,TRIANGLE,PENTAGON,STAR,1,0,83,88,78,3,1,23,21,2
P2,P1,Top,Mismatch,3,16,88,10,o,0.900128977,0,TRIANGLE,PENTAGON,STAR,1,0,84,89,78,3,1,23,21,2
P2,P2,Top,Match,3,17,89,8,w,1.216768055,1,TRIANGLE,PENTAGON,STAR,1,0,85,90,78,3,1,23,21,2
Stranger,Stranger,Bottom,Match,3,18,90,20,w,0.800192025,0,TRIANGLE,PENTAGON,STAR,1,0,86,91,78,3,1,23,21,2
Stranger,P1,Bottom,Mismatch,3,19,91,22,o,0.716849184,0,TRIANGLE,PENTAGON,STAR,1,0,87,92,78,3,1,23,21,2
P1,P1,Bottom,Match,3,20,92,4,w,0.56729176,0,TRIANGLE,PENTAGON,STAR,1,0,88,93,78,3,1,23,21,2
Stranger,P1,Top,Mismatch,3,21,93,18,o,1.066851375,0,TRIANGLE,PENTAGON,STAR,1,0,89,94,78,3,1,23,21,2
P2,P2,Bottom,Match,3,22,94,12,w,0.716808915,0,TRIANGLE,PENTAGON,STAR,1,0,90,95,78,3,1,23,21,2
Stranger,Stranger,Bottom,Match,3,23,95,21,w,0.800207816,0,TRIANGLE,PENTAGON,STAR,1,0,91,96,78,3,1,23,21,2
P2,Stranger,Bottom,Mismatch,4,0,96,15,o,0.833488024,0,TRIANGLE,PENTAGON,STAR,1,0,92,97,78,3,1,23,21,2
P2,Stranger,Bottom,Mismatch,4,1,97,15,o,1.183549039,0,TRIANGLE,PENTAGON,STAR,1,0,93,98,78,3,1,23,21,2
P1,P1,Top,Match,4,2,98,0,w,0.600160205,0,TRIANGLE,PENTAGON,STAR,1,0,94,99,78,3,1,23,21,2
Stranger,Stranger,Top,Match,4,3,99,17,w,0.866783629,0,TRIANGLE,PENTAGON,STAR,1,0,95,100,78,3,1,23,21,2
P2,P2,Top,Match,4,4,100,8,w,0.866851533,0,TRIANGLE,PENTAGON,STAR,1,0,96,101,78,3,1,23,21,2
P1,Stranger,Top,Mismatch,4,5,101,2,o,1.150137761,0,TRIANGLE,PENTAGON,STAR,1,0,97,102,78,3,1,23,21,2
Stranger,Stranger,Top,Match,4,6,102,16,w,0.617079226,0,TRIANGLE,PENTAGON,STAR,1,0,98,103,78,3,1,23,21,2
Stranger,Stranger,Top,Match,4,7,103,17,w,0.666850111,0,TRIANGLE,PENTAGON,STAR,1,0,99,104,78,3,1,23,21,2
P2,P1,Bottom,Mismatch,4,8,104,14,o,1.4501697,0,TRIANGLE,PENTAGON,STAR,1,0,100,105,78,3,1,23,21,2
P1,P2,Bottom,Mismatch,4,9,105,7,o,0.883537235,0,TRIANGLE,PENTAGON,STAR,1,0,101,106,78,3,1,23,21,2
Stranger,P1,Bottom,Mismatch,4,10,106,22,w,0.616814324,0,TRIANGLE,PENTAGON,STAR,0,0,101,107,78,3,1,23,21,2
P2,P2,Bottom,Match,4,11,107,13,w,0.783497243,0,TRIANGLE,PENTAGON,STAR,1,0,102,108,78,3,1,23,21,2
Stranger,P2,Top,Mismatch,4,12,108,19,o,1.01681914,0,TRIANGLE,PENTAGON,STAR,1,0,103,109,78,3,1,23,21,2
Stranger,P2,Top,Mismatch,4,13,109,19,o,0.716835761,0,TRIANGLE,PENTAGON,STAR,1,0,104,110,78,3,1,23,21,2
P1,P2,Top,Mismatch,4,14,110,3,o,0.900148717,0,TRIANGLE,PENTAGON,STAR,1,0,105,111,78,3,1,23,21,2
P1,P1,Top,Match,4,15,111,0,w,0.716823522,0,TRIANGLE,PENTAGON,STAR,1,0,106,112,78,3,1,23,21,2
P1,P2,Top,Mismatch,4,16,112,3,o,1.050121851,0,TRIANGLE,PENTAGON,STAR,1,0,107,113,78,3,1,23,21,2
P1,P1,Top,Match,4,17,113,1,w,0.733765047,0,TRIANGLE,PENTAGON,STAR,1,0,108,114,78,3,1,23,21,2
P1,Stranger,Bottom,Mismatch,4,18,114,6,o,0.916788228,0,TRIANGLE,PENTAGON,STAR,1,0,109,115,78,3,1,23,21,2
P2,P2,Top,Match,4,19,115,8,w,0.900155428,0,TRIANGLE,PENTAGON,STAR,1,0,110,116,78,3,1,23,21,2
P2,P2,Top,Match,4,20,116,9,w,0.633451072,0,TRIANGLE,PENTAGON,STAR,1,0,111,117,78,3,1,23,21,2
P1,P1,Top,Match,4,21,117,1,w,0.650147828,0,TRIANGLE,PENTAGON,STAR,1,0,112,118,78,3,1,23,21,2
P1,P1,Top,Match,4,22,118,0,w,0.550142183,0,TRIANGLE,PENTAGON,STAR,1,0,113,119,78,3,1,23,21,2
Stranger,P2,Bottom,Mismatch,4,23,119,23,o,0.816790084,0,TRIANGLE,PENTAGON,STAR,1,0,114,120,78,3,1,23,21,2
P2,P1,Bottom,Mismatch,0,0,0,14,o,1.283478885,0,TRIANGLE,PENTAGON,STAR,1,0,1,1,78,4,1,23,21,2
Stranger,Stranger,Bottom,Match,0,1,1,20,w,0.883454724,0,TRIANGLE,PENTAGON,STAR,1,0,2,2,78,4,1,23,21,2
P1,P1,Bottom,Match,0,2,2,5,w,0.75016058,0,TRIANGLE,PENTAGON,STAR,1,0,3,3,78,4,1,23,21,2
Stranger,P1,Bottom,Mismatch,0,3,3,22,o,0.850093979,0,TRIANGLE,PENTAGON,STAR,1,0,4,4,78,4,1,23,21,2
Stranger,Stranger,Top,Match,0,4,4,16,w,0.9501545,0,TRIANGLE,PENTAGON,STAR,1,0,5,5,78,4,1,23,21,2
P2,Stranger,Bottom,Mismatch,0,5,5,15,o,0.800385076,0,TRIANGLE,PENTAGON,STAR,1,0,6,6,78,4,1,23,21,2
Stranger,P2,Bottom,Mismatch,0,6,6,23,o,1.033471285,0,TRIANGLE,PENTAGON,STAR,1,0,7,7,78,4,1,23,21,2
Stranger,Stranger,Top,Match,0,7,7,16,w,0.600185076,0,TRIANGLE,PENTAGON,STAR,1,0,8,8,78,4,1,23,21,2
P1,Stranger,Top,Mismatch,0,8,8,2,o,0.966829148,0,TRIANGLE,PENTAGON,STAR,1,0,9,9,78,4,1,23,21,2
Stranger,Stranger,Bottom,Match,0,9,9,20,w,1.017089965,0,TRIANGLE,PENTAGON,STAR,1,0,10,10,78,4,1,23,21,2
P1,P1,Bottom,Match,0,10,10,4,w,0.617140418,0,TRIANGLE,PENTAGON,STAR,1,0,11,11,78,4,1,23,21,2
Stranger,P1,Top,Mismatch,0,11,11,18,o,0.750124654,0,TRIANGLE,PENTAGON,STAR,1,0,12,12,78,4,1,23,21,2
P1,P2,Bottom,Mismatch,0,12,12,7,o,1.167196143,0,TRIANGLE,PENTAGON,STAR,1,0,13,13,78,4,1,23,21,2
Stranger,Stranger,Top,Match,0,13,13,17,w,0.866808106,0,TRIANGLE,PENTAGON,STAR,1,0,14,14,78,4,1,23,21,2
P2,Stranger,Top,Mismatch,0,14,14,11,o,0.78351106,0,TRIANGLE,PENTAGON,STAR,1,0,15,15,78,4,1,23,21,2
Stranger,Stranger,Bottom,Match,0,15,15,20,w,1.283459935,1,TRIANGLE,PENTAGON,STAR,1,0,16,16,78,4,1,23,21,2
P1,Stranger,Bottom,Mismatch,0,16,16,6,o,0.91678507,0,TRIANGLE,PENTAGON,STAR,1,0,17,17,78,4,1,23,21,2
Stranger,P2,Top,Mismatch,0,17,17,19,o,0.733466193,0,TRIANGLE,PENTAGON,STAR,1,0,18,18,78,4,1,23,21,2
Stranger,P1,Top,Mismatch,0,18,18,18,o,1.283446512,0,TRIANGLE,PENTAGON,STAR,1,0,19,19,78,4,1,23,21,2
P2,Stranger,Bottom,Mismatch,0,19,19,15,o,0.850134248,0,TRIANGLE,PENTAGON,STAR,1,0,20,20,78,4,1,23,21,2
Stranger,P2,Top,Mismatch,0,20,20,19,o,1.283435853,0,TRIANGLE,PENTAGON,STAR,1,0,21,21,78,4,1,23,21,2
P2,P2,Bottom,Match,0,21,21,12,w,0.933452217,0,TRIANGLE,PENTAGON,STAR,1,0,22,22,78,4,1,23,21,2
P1,Stranger,Bottom,Mismatch,0,22,22,6,o,0.933519726,0,TRIANGLE,PENTAGON,STAR,1,0,23,23,78,4,1,23,21,2
P2,Stranger,Bottom,Mismatch,0,23,23,15,o,0.700608802,0,TRIANGLE,PENTAGON,STAR,1,0,24,24,78,4,1,23,21,2
P1,P1,Bottom,Match,1,0,24,4,w,0.700150848,0,TRIANGLE,PENTAGON,STAR,1,0,25,25,78,4,1,23,21,2
P1,P1,Top,Match,1,1,25,1,w,0.883469726,0,TRIANGLE,PENTAGON,STAR,1,0,26,26,78,4,1,23,21,2
P2,P2,Bottom,Match,1,2,26,12,w,0.683465541,0,TRIANGLE,PENTAGON,STAR,1,0,27,27,78,4,1,23,21,2
P1,P2,Bottom,Mismatch,1,3,27,7,w,0.550169818,0,TRIANGLE,PENTAGON,STAR,0,0,27,28,78,4,1,23,21,2
P2,P1,Top,Mismatch,1,4,28,10,o,0.983526299,0,TRIANGLE,PENTAGON,STAR,1,0,28,29,78,4,1,23,21,2
Stranger,P1,Bottom,Mismatch,1,5,29,22,o,1.100055389,0,TRIANGLE,PENTAGON,STAR,1,0,29,30,78,4,1,23,21,2
P2,P2,Top,Match,1,6,30,9,w,0.700148085,0,TRIANGLE,PENTAGON,STAR,1,0,30,31,78,4,1,23,21,2
Stranger,P2,Top,Mismatch,1,7,31,19,o,0.800166758,0,TRIANGLE,PENTAGON,STAR,1,0,31,32,78,4,1,23,21,2
Stranger,P1,Bottom,Mismatch,1,8,32,22,o,1.033478391,0,TRIANGLE,PENTAGON,STAR,1,0,32,33,78,4,1,23,21,2
P1,P1,Bottom,Match,1,9,33,4,w,0.617096202,0,TRIANGLE,PENTAGON,STAR,1,0,33,34,78,4,1,23,21,2
P2,P2,Top,Match,1,10,34,9,w,0.883697124,0,TRIANGLE,PENTAGON,STAR,1,0,34,35,78,4,1,23,21,2
P2,Stranger,Bottom,Mismatch,1,11,35,15,o,0.950154895,0,TRIANGLE,PENTAGON,STAR,1,0,35,36,78,4,1,23,21,2
P2,P2,Top,Match,1,12,36,9,w,0.767148689,0,TRIANGLE,PENTAGON,STAR,1,0,36,37,78,4,1,23,21,2
Stranger,P2,Bottom,Mismatch,1,13,37,23,o,0.866816396,0,TRIANGLE,PENTAGON,STAR,1,0,37,38,78,4,1,23,21,2
P1,P1,Top,Match,1,14,38,0,w,1.333444795,1,TRIANGLE,PENTAGON,STAR,1,0,38,39,78,4,1,23,21,2
P1,P1,Top,Match,1,15,39,0,w,0.650202309,0,TRIANGLE,PENTAGON,STAR,1,0,39,40,78,4,1,23,21,2
Stranger,Stranger,Bottom,Match,1,16,40,20,w,0.817093281,0,TRIANGLE,PENTAGON,STAR,1,0,40,41,78,4,1,23,21,2
Stranger,P2,Bottom,Mismatch,1,17,41,23,o,0.883544736,0,TRIANGLE,PENTAGON,STAR,1,0,41,42,78,4,1,23,21,2
P2,P2,Bottom,Match,1,18,42,13,w,0.766829701,0,TRIANGLE,PENTAGON,STAR,1,0,42,43,78,4,1,23,21,2
P2,Stranger,Top,Mismatch,1,19,43,11,o,1.500135215,1,TRIANGLE,PENTAGON,STAR,1,0,43,44,78,4,1,23,21,2
P1,Stranger,Top,Mismatch,1,20,44,2,o,0.96688205,0,TRIANGLE,PENTAGON,STAR,1,0,44,45,78,4,1,23,21,2
P2,P2,Bottom,Match,1,21,45,12,w,0.850608388,0,TRIANGLE,PENTAGON,STAR,1,0,45,46,78,4,1,23,21,2
P2,P2,Top,Match,1,22,46,8,w,0.70020296,0,TRIANGLE,PENTAGON,STAR,1,0,46,47,78,4,1,23,21,2
P1,P1,Bottom,Match,1,23,47,5,w,0.583528589,0,TRIANGLE,PENTAGON,STAR,1,0,47,48,78,4,1,23,21,2
P1,P1,Top,Match,2,0,48,1,w,0.666808264,0,TRIANGLE,PENTAGON,STAR,1,0,48,49,78,4,1,23,21,2
P2,P1,Bottom,Mismatch,2,1,49,14,o,0.816809823,0,TRIANGLE,PENTAGON,STAR,1,0,49,50,78,4,1,23,21,2
Stranger,Stranger,Top,Match,2,2,50,17,w,0.716813258,0,TRIANGLE,PENTAGON,STAR,1,0,50,51,78,4,1,23,21,2
P2,P2,Top,Match,2,3,51,8,w,0.683527918,0,TRIANGLE,PENTAGON,STAR,1,0,51,52,78,4,1,23,21,2
P2,P1,Bottom,Mismatch,2,4,52,14,o,0.816822456,0,TRIANGLE,PENTAGON,STAR,1,0,52,53,78,4,1,23,21,2
P2,P2,Top,Match,2,5,53,9,w,0.866847585,0,TRIANGLE,PENTAGON,STAR,1,0,53,54,78,4,1,23,21,2
P1,P1,Top,Match,2,6,54,0,w,0.833924265,0,TRIANGLE,PENTAGON,STAR,1,0,54,55,78,4,1,23,21,2
Stranger,P1,Bottom,Mismatch,2,7,55,22,o,0.75015979,0,TRIANGLE,PENTAGON,STAR,1,0,55,56,78,4,1,23,21,2
Stranger,Stranger,Bottom,Match,2,8,56,21,w,0.883505652,0,TRIANGLE,PENTAGON,STAR,1,0,56,57,78,4,1,23,21,2
P2,P1,Bottom,Mismatch,2,9,57,14,o,1.26682753,0,TRIANGLE,PENTAGON,STAR,1,0,57,58,78,4,1,23,21,2
P2,P2,Bottom,Match,2,10,58,12,w,0.650177832,0,TRIANGLE,PENTAGON,STAR,1,0,58,59,78,4,1,23,21,2
P1,P2,Top,Mismatch,2,11,59,3,o,0.766856941,0,TRIANGLE,PENTAGON,STAR,1,0,59,60,78,4,1,23,21,2
P1,Stranger,Bottom,Mismatch,2,12,60,6,o,0.966814146,0,TRIANGLE,PENTAGON,STAR,1,0,60,61,78,4,1,23,21,2
P1,P1,Top,Match,2,13,61,0,w,0.616813929,0,TRIANGLE,PENTAGON,STAR,1,0,61,62,78,4,1,23,21,2
Stranger,P2,Bottom,Mismatch,2,14,62,23,o,0.783467239,0,TRIANGLE,PENTAGON,STAR,1,0,62,63,78,4,1,23,21,2
P1,P2,Top,Mismatch,2,15,63,3,o,1.0501712,0,TRIANGLE,PENTAGON,STAR,1,0,63,64,78,4,1,23,21,2
P1,P2,Bottom,Mismatch,2,16,64,7,o,0.650200335,0,TRIANGLE,PENTAGON,STAR,1,0,64,65,78,4,1,23,21,2
P2,P2,Bottom,Match,2,17,65,12,w,0.850105033,0,TRIANGLE,PENTAGON,STAR,1,0,65,66,78,4,1,23,21,2
P1,Stranger,Bottom,Mismatch,2,18,66,6,o,0.783522114,0,TRIANGLE,PENTAGON,STAR,1,0,66,67,78,4,1,23,21,2
Stranger,P1,Top,Mismatch,2,19,67,18,o,0.933471956,0,TRIANGLE,PENTAGON,STAR,1,0,67,68,78,4,1,23,21,2
Stranger,P2,Top,Mismatch,2,20,68,19,o,0.883455514,0,TRIANGLE,PENTAGON,STAR,1,0,68,69,78,4,1,23,21,2
Stranger,P1,Bottom,Mismatch,2,21,69,22,o,1.350100888,0,TRIANGLE,PENTAGON,STAR,1,0,69,70,78,4,1,23,21,2
Stranger,Stranger,Top,Match,2,22,70,16,w,0.733478036,0,TRIANGLE,PENTAGON,STAR,1,0,70,71,78,4,1,23,21,2
P2,P2,Top,Match,2,23,71,9,w,0.700133083,0,TRIANGLE,PENTAGON,STAR,1,0,71,72,78,4,1,23,21,2
P2,Stranger,Top,Mismatch,3,0,72,11,o,1.216854118,0,TRIANGLE,PENTAGON,STAR,1,0,72,73,78,4,1,23,21,2
P2,P1,Top,Mismatch,3,1,73,10,None,None,1,TRIANGLE,PENTAGON,STAR,3,0,72,74,78,4,1,23,21,2
P1,Stranger,Top,Mismatch,3,2,74,2,o,1.300102605,0,TRIANGLE,PENTAGON,STAR,1,0,73,75,78,4,1,23,21,2
P2,P2,Bottom,Match,3,3,75,13,w,0.75016966,0,TRIANGLE,PENTAGON,STAR,1,0,74,76,78,4,1,23,21,2
P1,P2,Top,Mismatch,3,4,76,3,o,0.833451704,0,TRIANGLE,PENTAGON,STAR,1,0,75,77,78,4,1,23,21,2
Stranger,Stranger,Top,Match,3,5,77,17,w,0.600080063,0,TRIANGLE,PENTAGON,STAR,1,0,76,78,78,4,1,23,21,2
P1,P2,Top,Mismatch,3,6,78,3,o,0.883607112,0,TRIANGLE,PENTAGON,STAR,1,0,77,79,78,4,1,23,21,2
Stranger,Stranger,Top,Match,3,7,79,17,w,0.80019084,0,TRIANGLE,PENTAGON,STAR,1,0,78,80,78,4,1,23,21,2
Stranger,P2,Top,Mismatch,3,8,80,19,o,0.733492643,0,TRIANGLE,PENTAGON,STAR,1,0,79,81,78,4,1,23,21,2
P2,P1,Top,Mismatch,3,9,81,10,o,0.833478549,0,TRIANGLE,PENTAGON,STAR,1,0,80,82,78,4,1,23,21,2
P1,P2,Top,Mismatch,3,10,82,3,o,1.1168161,0,TRIANGLE,PENTAGON,STAR,1,0,81,83,78,4,1,23,21,2
P1,P2,Bottom,Mismatch,3,11,83,7,o,0.800148993,0,TRIANGLE,PENTAGON,STAR,1,0,82,84,78,4,1,23,21,2
P2,P1,Bottom,Mismatch,3,12,84,14,o,0.933531569,0,TRIANGLE,PENTAGON,STAR,1,0,83,85,78,4,1,23,21,2
P2,P2,Top,Match,3,13,85,8,w,0.883506046,0,TRIANGLE,PENTAGON,STAR,1,0,84,86,78,4,1,23,21,2
P2,P2,Bottom,Match,3,14,86,13,w,0.81682443,0,TRIANGLE,PENTAGON,STAR,1,0,85,87,78,4,1,23,21,2
P1,P1,Bottom,Match,3,15,87,4,w,0.650233892,0,TRIANGLE,PENTAGON,STAR,1,0,86,88,78,4,1,23,21,2
P2,Stranger,Top,Mismatch,3,16,88,11,o,0.883740155,0,TRIANGLE,PENTAGON,STAR,1,0,87,89,78,4,1,23,21,2
P2,P2,Top,Match,3,17,89,8,w,0.850447709,0,TRIANGLE,PENTAGON,STAR,1,0,88,90,78,4,1,23,21,2
P2,Stranger,Bottom,Mismatch,3,18,90,15,o,0.716805757,0,TRIANGLE,PENTAGON,STAR,1,0,89,91,78,4,1,23,21,2
Stranger,Stranger,Bottom,Match,3,19,91,21,w,0.866914304,0,TRIANGLE,PENTAGON,STAR,1,0,90,92,78,4,1,23,21,2
Stranger,Stranger,Top,Match,3,20,92,16,w,0.616796953,0,TRIANGLE,PENTAGON,STAR,1,0,91,93,78,4,1,23,21,2
Stranger,P2,Bottom,Mismatch,3,21,93,23,o,0.733470535,0,TRIANGLE,PENTAGON,STAR,1,0,92,94,78,4,1,23,21,2
Stranger,Stranger,Top,Match,3,22,94,17,w,0.750106494,0,TRIANGLE,PENTAGON,STAR,1,0,93,95,78,4,1,23,21,2
P1,P2,Bottom,Mismatch,3,23,95,7,o,0.833461179,0,TRIANGLE,PENTAGON,STAR,1,0,94,96,78,4,1,23,21,2
Stranger,P1,Top,Mismatch,4,0,96,18,o,1.066788209,0,TRIANGLE,PENTAGON,STAR,1,0,95,97,78,4,1,23,21,2
P1,P1,Top,Match,4,1,97,1,o,0.850128326,0,TRIANGLE,PENTAGON,STAR,0,0,95,98,78,4,1,23,21,2
P2,Stranger,Top,Mismatch,4,2,98,11,w,0.816854039,0,TRIANGLE,PENTAGON,STAR,0,0,95,99,78,4,1,23,21,2
Stranger,Stranger,Bottom,Match,4,3,99,21,w,0.716839314,0,TRIANGLE,PENTAGON,STAR,1,0,96,100,78,4,1,23,21,2
P1,P1,Bottom,Match,4,4,100,5,w,0.68374742,0,TRIANGLE,PENTAGON,STAR,1,0,97,101,78,4,1,23,21,2
P2,P2,Bottom,Match,4,5,101,13,w,0.666858402,0,TRIANGLE,PENTAGON,STAR,1,0,98,102,78,4,1,23,21,2
P1,P1,Bottom,Match,4,6,102,5,w,0.633493314,0,TRIANGLE,PENTAGON,STAR,1,0,99,103,78,4,1,23,21,2
P2,P2,Bottom,Match,4,7,103,13,w,0.883513547,0,TRIANGLE,PENTAGON,STAR,1,0,100,104,78,4,1,23,21,2
Stranger,Stranger,Top,Match,4,8,104,16,w,0.600204026,0,TRIANGLE,PENTAGON,STAR,1,0,101,105,78,4,1,23,21,2
P1,P1,Top,Match,4,9,105,1,w,0.65014388,0,TRIANGLE,PENTAGON,STAR,1,0,102,106,78,4,1,23,21,2
P1,Stranger,Top,Mismatch,4,10,106,2,o,1.233685497,0,TRIANGLE,PENTAGON,STAR,1,0,103,107,78,4,1,23,21,2
P2,P1,Top,Mismatch,4,11,107,10,o,0.783511455,0,TRIANGLE,PENTAGON,STAR,1,0,104,108,78,4,1,23,21,2
P1,Stranger,Bottom,Mismatch,4,12,108,6,o,1.033540768,0,TRIANGLE,PENTAGON,STAR,1,0,105,109,78,4,1,23,21,2
P1,P1,Bottom,Match,4,13,109,5,w,0.750134524,0,TRIANGLE,PENTAGON,STAR,1,0,106,110,78,4,1,23,21,2
P2,P2,Top,Match,4,14,110,8,w,0.766827332,0,TRIANGLE,PENTAGON,STAR,1,0,107,111,78,4,1,23,21,2
P2,P1,Top,Mismatch,4,15,111,10,o,1.000426371,0,TRIANGLE,PENTAGON,STAR,1,0,108,112,78,4,1,23,21,2
Stranger,Stranger,Bottom,Match,4,16,112,20,w,0.73378755,0,TRIANGLE,PENTAGON,STAR,1,0,109,113,78,4,1,23,21,2
Stranger,P1,Top,Mismatch,4,17,113,18,o,0.683807822,0,TRIANGLE,PENTAGON,STAR,1,0,110,114,78,4,1,23,21,2
P1,P1,Top,Match,4,18,114,0,w,0.78356791,0,TRIANGLE,PENTAGON,STAR,1,0,111,115,78,4,1,23,21,2
P1,P1,Bottom,Match,4,19,115,4,w,0.683523575,0,TRIANGLE,PENTAGON,STAR,1,0,112,116,78,4,1,23,21,2
Stranger,Stranger,Bottom,Match,4,20,116,21,w,0.733436583,0,TRIANGLE,PENTAGON,STAR,1,0,113,117,78,4,1,23,21,2
Stranger,Stranger,Bottom,Match,4,21,117,21,w,0.666803921,0,TRIANGLE,PENTAGON,STAR,1,0,114,118,78,4,1,23,21,2
P1,Stranger,Top,Mismatch,4,22,118,2,o,0.71680852,0,TRIANGLE,PENTAGON,STAR,1,0,115,119,78,4,1,23,21,2
P1,P1,Top,Match,4,23,119,1,w,0.616819851,0,TRIANGLE,PENTAGON,STAR,1,0,116,120,78,4,1,23,21,2
P1,P2,Bottom,Mismatch,0,0,0,7,w,1.316736985,0,STAR,TRIANGLE,CIRCLE,1,0,1,1,78,1,2,21,22,1
P1,P2,Top,Mismatch,0,1,1,3,w,0.750134919,0,STAR,TRIANGLE,CIRCLE,1,0,2,2,78,1,2,21,22,1
P1,P1,Bottom,Match,0,2,2,4,o,0.400293801,0,STAR,TRIANGLE,CIRCLE,1,0,3,3,78,1,2,21,22,1
Stranger,P1,Top,Mismatch,0,3,3,18,w,0.983386149,0,STAR,TRIANGLE,CIRCLE,1,0,4,4,78,1,2,21,22,1
P2,P2,Bottom,Match,0,4,4,13,o,0.783475924,0,STAR,TRIANGLE,CIRCLE,1,0,5,5,78,1,2,21,22,1
Stranger,Stranger,Bottom,Match,0,5,5,20,o,0.650162041,0,STAR,TRIANGLE,CIRCLE,1,0,6,6,78,1,2,21,22,1
P1,Stranger,Top,Mismatch,0,6,6,2,w,0.716770621,0,STAR,TRIANGLE,CIRCLE,1,0,7,7,78,1,2,21,22,1
P1,P1,Bottom,Match,0,7,7,5,o,0.51680552,0,STAR,TRIANGLE,CIRCLE,1,0,8,8,78,1,2,21,22,1
P1,Stranger,Bottom,Mismatch,0,8,8,6,w,1.000150414,0,STAR,TRIANGLE,CIRCLE,1,0,9,9,78,1,2,21,22,1
Stranger,Stranger,Top,Match,0,9,9,16,o,0.400438293,0,STAR,TRIANGLE,CIRCLE,1,0,10,10,78,1,2,21,22,1
P2,P2,Bottom,Match,0,10,10,13,w,0.433709816,0,STAR,TRIANGLE,CIRCLE,0,0,10,11,78,1,2,21,22,1
P2,P1,Bottom,Mismatch,0,11,11,14,o,0.416818824,0,STAR,TRIANGLE,CIRCLE,0,0,10,12,78,1,2,21,22,1
P2,P2,Top,Match,0,12,12,9,w,0.450170489,0,STAR,TRIANGLE,CIRCLE,0,0,10,13,78,1,2,21,22,1
Stranger,P1,Top,Mismatch,0,13,13,18,o,0.483533603,0,STAR,TRIANGLE,CIRCLE,0,0,10,14,78,1,2,21,22,1
P1,Stranger,Bottom,Mismatch,0,14,14,6,None,None,1,STAR,TRIANGLE,CIRCLE,3,0,10,15,78,1,2,21,22,1
P1,Stranger,Bottom,Mismatch,0,15,15,6,None,None,1,STAR,TRIANGLE,CIRCLE,3,0,10,16,78,1,2,21,22,1
P1,Stranger,Top,Mismatch,0,16,16,2,w,0.716789571,0,STAR,TRIANGLE,CIRCLE,1,0,11,17,78,1,2,21,22,1
P2,P1,Bottom,Mismatch,0,17,17,14,w,1.300157481,0,STAR,TRIANGLE,CIRCLE,1,0,12,18,78,1,2,21,22,1
Stranger,Stranger,Bottom,Match,0,18,18,21,o,0.733478826,0,STAR,TRIANGLE,CIRCLE,1,0,13,19,78,1,2,21,22,1
Stranger,Stranger,Top,Match,0,19,19,17,w,0.66685327,0,STAR,TRIANGLE,CIRCLE,0,0,13,20,78,1,2,21,22,1
Stranger,Stranger,Bottom,Match,0,20,20,21,o,0.616849065,0,STAR,TRIANGLE,CIRCLE,1,0,14,21,78,1,2,21,22,1
Stranger,Stranger,Top,Match,0,21,21,17,o,0.450147197,0,STAR,TRIANGLE,CIRCLE,1,0,15,22,78,1,2,21,22,1
Stranger,Stranger,Bottom,Match,0,22,22,20,o,0.333475983,0,STAR,TRIANGLE,CIRCLE,1,0,16,23,78,1,2,21,22,1
P2,P1,Bottom,Mismatch,0,23,23,14,w,0.816776266,0,STAR,TRIANGLE,CIRCLE,1,0,17,24,78,1,2,21,22,1
P2,Stranger,Bottom,Mismatch,1,0,24,15,None,None,0,STAR,TRIANGLE,CIRCLE,3,0,17,25,78,1,2,21,22,1
Stranger,Stranger,Top,Match,1,1,25,16,o,0.616814324,0,STAR,TRIANGLE,CIRCLE,1,0,18,26,78,1,2,21,22,1
Stranger,Stranger,Bottom,Match,1,2,26,20,o,0.616823404,0,STAR,TRIANGLE,CIRCLE,1,0,19,27,78,1,2,21,22,1
Stranger,Stranger,Top,Match,1,3,27,17,o,0.333462166,0,STAR,TRIANGLE,CIRCLE,1,0,20,28,78,1,2,21,22,1
Stranger,P2,Top,Mismatch,1,4,28,19,w,0.733482774,0,STAR,TRIANGLE,CIRCLE,1,0,21,29,78,1,2,21,22,1
Stranger,P1,Bottom,Mismatch,1,5,29,22,w,0.916815469,0,STAR,TRIANGLE,CIRCLE,1,0,22,30,78,1,2,21,22,1
P1,P1,Top,Match,1,6,30,1,o,0.750161764,0,STAR,TRIANGLE,CIRCLE,1,0,23,31,78,1,2,21,22,1
P2,P1,Top,Mismatch,1,7,31,10,o,0.516869081,0,STAR,TRIANGLE,CIRCLE,0,0,23,32,78,1,2,21,22,1
P1,P2,Top,Mismatch,1,8,32,3,w,0.800158468,0,STAR,TRIANGLE,CIRCLE,1,0,24,33,78,1,2,21,22,1
Stranger,P2,Top,Mismatch,1,9,33,19,w,0.650132826,0,STAR,TRIANGLE,CIRCLE,1,0,25,34,78,1,2,21,22,1
P2,P1,Top,Mismatch,1,10,34,10,w,0.866799815,0,STAR,TRIANGLE,CIRCLE,1,0,26,35,78,1,2,21,22,1
P1,P1,Top,Match,1,11,35,0,o,0.533511356,0,STAR,TRIANGLE,CIRCLE,1,0,27,36,78,1,2,21,22,1
P1,P1,Top,Match,1,12,36,0,o,0.516850526,0,STAR,TRIANGLE,CIRCLE,1,0,28,37,78,1,2,21,22,1
P2,P2,Top,Match,1,13,37,8,w,0.466871983,0,STAR,TRIANGLE,CIRCLE,0,0,28,38,78,1,2,21,22,1
P1,Stranger,Bottom,Mismatch,1,14,38,6,None,None,1,STAR,TRIANGLE,CIRCLE,3,0,28,39,78,1,2,21,22,1
P2,P2,Bottom,Match,1,15,39,12,o,1.050152645,0,STAR,TRIANGLE,CIRCLE,1,0,29,40,78,1,2,21,22,1
Stranger,P1,Top,Mismatch,1,16,40,18,o,0.500423015,0,STAR,TRIANGLE,CIRCLE,0,0,29,41,78,1,2,21,22,1
P2,Stranger,Bottom,Mismatch,1,17,41,15,w,0.933716725,0,STAR,TRIANGLE,CIRCLE,1,0,30,42,78,1,2,21,22,1
P1,P1,Bottom,Match,1,18,42,4,o,0.550141393,0,STAR,TRIANGLE,CIRCLE,1,0,31,43,78,1,2,21,22,1
Stranger,P1,Bottom,Mismatch,1,19,43,22,w,0.766803645,0,STAR,TRIANGLE,CIRCLE,1,0,32,44,78,1,2,21,22,1
P2,P1,Bottom,Mismatch,1,20,44,14,w,1.033755927,0,STAR,TRIANGLE,CIRCLE,1,0,33,45,78,1,2,21,22,1
P2,P2,Top,Match,1,21,45,9,o,0.63350121,0,STAR,TRIANGLE,CIRCLE,1,0,34,46,78,1,2,21,22,1
P2,P2,Bottom,Match,1,22,46,12,o,0.516852105,0,STAR,TRIANGLE,CIRCLE,1,0,35,47,78,1,2,21,22,1
P1,P1,Top,Match,1,23,47,0,o,0.666813001,0,STAR,TRIANGLE,CIRCLE,1,0,36,48,78,1,2,21,22,1
P2,Stranger,Bottom,Mismatch,2,0,48,15,w,0.950138314,0,STAR,TRIANGLE,CIRCLE,1,0,37,49,78,1,2,21,22,1
P2,P2,Top,Match,2,1,49,9,w,0.716827865,0,STAR,TRIANGLE,CIRCLE,0,0,37,50,78,1,2,21,22,1
P2,P2,Bottom,Match,2,2,50,13,o,0.466833293,0,STAR,TRIANGLE,CIRCLE,1,0,38,51,78,1,2,21,22,1
P1,P2,Top,Mismatch,2,3,51,3,w,0.716825891,0,STAR,TRIANGLE,CIRCLE,1,0,39,52,78,1,2,21,22,1
P1,P2,Bottom,Mismatch,2,4,52,7,w,1.2001242,0,STAR,TRIANGLE,CIRCLE,1,0,40,53,78,1,2,21,22,1
P2,P2,Top,Match,2,5,53,9,o,0.566827885,0,STAR,TRIANGLE,CIRCLE,1,0,41,54,78,1,2,21,22,1
P2,Stranger,Top,Mismatch,2,6,54,11,w,0.567104236,0,STAR,TRIANGLE,CIRCLE,1,0,42,55,78,1,2,21,22,1
Stranger,P2,Top,Mismatch,2,7,55,19,w,0.76681312,0,STAR,TRIANGLE,CIRCLE,1,0,43,56,78,1,2,21,22,1
Stranger,Stranger,Top,Match,2,8,56,17,o,0.366819357,0,STAR,TRIANGLE,CIRCLE,1,0,44,57,78,1,2,21,22,1
Stranger,Stranger,Bottom,Match,2,9,57,21,o,0.600119937,0,STAR,TRIANGLE,CIRCLE,1,0,45,58,78,1,2,21,22,1
Stranger,P1,Top,Mismatch,2,10,58,18,w,0.716826286,0,STAR,TRIANGLE,CIRCLE,1,0,46,59,78,1,2,21,22,1
Stranger,Stranger,Top,Match,2,11,59,16,o,0.633442782,0,STAR,TRIANGLE,CIRCLE,1,0,47,60,78,1,2,21,22,1
P2,Stranger,Top,Mismatch,2,12,60,11,w,0.750157027,0,STAR,TRIANGLE,CIRCLE,1,0,48,61,78,1,2,21,22,1
P2,Stranger,Top,Mismatch,2,13,61,11,w,0.616832089,0,STAR,TRIANGLE,CIRCLE,1,0,49,62,78,1,2,21,22,1
P1,P1,Bottom,Match,2,14,62,5,o,0.483493334,0,STAR,TRIANGLE,CIRCLE,1,0,50,63,78,1,2,21,22,1
P1,P1,Top,Match,2,15,63,0,o,0.5334853,0,STAR,TRIANGLE,CIRCLE,1,0,51,64,78,1,2,21,22,1
Stranger,Stranger,Top,Match,2,16,64,16,w,0.550162712,0,STAR,TRIANGLE,CIRCLE,0,0,51,65,78,1,2,21,22,1
P2,P1,Top,Mismatch,2,17,65,10,o,0.650149407,0,STAR,TRIANGLE,CIRCLE,0,0,51,66,78,1,2,21,22,1
P1,P1,Top,Match,2,18,66,1,w,0.616830115,0,STAR,TRIANGLE,CIRCLE,0,0,51,67,78,1,2,21,22,1
P1,P1,Bottom,Match,2,19,67,5,o,0.450165357,0,STAR,TRIANGLE,CIRCLE,1,0,52,68,78,1,2,21,22,1
Stranger,P2,Bottom,Mismatch,2,20,68,23,w,0.616803665,0,STAR,TRIANGLE,CIRCLE,1,0,53,69,78,1,2,21,22,1
P2,P2,Bottom,Match,2,21,69,12,o,0.366811462,0,STAR,TRIANGLE,CIRCLE,1,0,54,70,78,1,2,21,22,1
P1,P1,Bottom,Match,2,22,70,4,o,0.400170627,0,STAR,TRIANGLE,CIRCLE,1,0,55,71,78,1,2,21,22,1
Stranger,P2,Bottom,Mismatch,2,23,71,23,w,0.383479003,0,STAR,TRIANGLE,CIRCLE,1,0,56,72,78,1,2,21,22,1
P2,P1,Bottom,Mismatch,3,0,72,14,o,0.416864225,0,STAR,TRIANGLE,CIRCLE,0,0,56,73,78,1,2,21,22,1
P1,P2,Bottom,Mismatch,3,1,73,7,w,0.733454349,0,STAR,TRIANGLE,CIRCLE,1,0,57,74,78,1,2,21,22,1
P1,P1,Bottom,Match,3,2,74,5,o,0.616810376,0,STAR,TRIANGLE,CIRCLE,1,0,58,75,78,1,2,21,22,1
P1,P1,Top,Match,3,3,75,0,o,0.433476102,0,STAR,TRIANGLE,CIRCLE,1,0,59,76,78,1,2,21,22,1
P1,P1,Bottom,Match,3,4,76,4,o,0.333512699,0,STAR,TRIANGLE,CIRCLE,1,0,60,77,78,1,2,21,22,1
P2,Stranger,Bottom,Mismatch,3,5,77,15,w,0.650164409,0,STAR,TRIANGLE,CIRCLE,1,0,61,78,78,1,2,21,22,1
P2,P2,Bottom,Match,3,6,78,13,w,0.616819456,0,STAR,TRIANGLE,CIRCLE,0,0,61,79,78,1,2,21,22,1
P1,P2,Bottom,Mismatch,3,7,79,7,o,0.600154283,0,STAR,TRIANGLE,CIRCLE,0,0,61,80,78,1,2,21,22,1
Stranger,Stranger,Top,Match,3,8,80,16,w,0.750138077,0,STAR,TRIANGLE,CIRCLE,0,0,61,81,78,1,2,21,22,1
Stranger,P2,Bottom,Mismatch,3,9,81,23,w,1.000116462,0,STAR,TRIANGLE,CIRCLE,1,0,62,82,78,1,2,21,22,1
Stranger,P2,Bottom,Mismatch,3,10,82,23,o,0.566812883,0,STAR,TRIANGLE,CIRCLE,0,0,62,83,78,1,2,21,22,1
Stranger,P2,Top,Mismatch,3,11,83,19,w,0.66682445,0,STAR,TRIANGLE,CIRCLE,1,0,63,84,78,1,2,21,22,1
P2,P1,Top,Mismatch,3,12,84,10,w,0.900060284,0,STAR,TRIANGLE,CIRCLE,1,0,64,85,78,1,2,21,22,1
P1,Stranger,Bottom,Mismatch,3,13,85,6,o,0.58349898,0,STAR,TRIANGLE,CIRCLE,0,0,64,86,78,1,2,21,22,1
P1,P2,Bottom,Mismatch,3,14,86,7,w,0.850140959,0,STAR,TRIANGLE,CIRCLE,1,0,65,87,78,1,2,21,22,1
P2,Stranger,Top,Mismatch,3,15,87,11,w,1.083452987,0,STAR,TRIANGLE,CIRCLE,1,0,66,88,78,1,2,21,22,1
P1,P1,Bottom,Match,3,16,88,5,o,0.516814995,0,STAR,TRIANGLE,CIRCLE,1,0,67,89,78,1,2,21,22,1
Stranger,P2,Top,Mismatch,3,17,89,19,w,0.850398755,0,STAR,TRIANGLE,CIRCLE,1,0,68,90,78,1,2,21,22,1
P2,P2,Top,Match,3,18,90,8,o,0.566838939,0,STAR,TRIANGLE,CIRCLE,1,0,69,91,78,1,2,21,22,1
Stranger,P2,Bottom,Mismatch,3,19,91,23,w,0.500174299,0,STAR,TRIANGLE,CIRCLE,1,0,70,92,78,1,2,21,22,1
P1,P2,Top,Mismatch,3,20,92,3,w,1.083414693,0,STAR,TRIANGLE,CIRCLE,1,0,71,93,78,1,2,21,22,1
P2,P2,Top,Match,3,21,93,8,o,0.666807474,0,STAR,TRIANGLE,CIRCLE,1,0,72,94,78,1,2,21,22,1
Stranger,P1,Bottom,Mismatch,3,22,94,22,w,0.916788623,0,STAR,TRIANGLE,CIRCLE,1,0,73,95,78,1,2,21,22,1
P2,P1,Top,Mismatch,3,23,95,10,w,0.833456441,0,STAR,TRIANGLE,CIRCLE,1,0,74,96,78,1,2,21,22,1
P2,P2,Bottom,Match,4,0,96,13,w,0.650130852,0,STAR,TRIANGLE,CIRCLE,0,0,74,97,78,1,2,21,22,1
P2,P2,Bottom,Match,4,1,97,12,o,0.483479911,0,STAR,TRIANGLE,CIRCLE,1,0,75,98,78,1,2,21,22,1
Stranger,Stranger,Bottom,Match,4,2,98,20,w,0.616826957,0,STAR,TRIANGLE,CIRCLE,0,0,75,99,78,1,2,21,22,1
P1,Stranger,Top,Mismatch,4,3,99,2,o,0.48347399,0,STAR,TRIANGLE,CIRCLE,0,0,75,100,78,1,2,21,22,1
P2,P2,Top,Match,4,4,100,8,o,1.366817778,1,STAR,TRIANGLE,CIRCLE,1,0,76,101,78,1,2,21,22,1
P2,Stranger,Bottom,Mismatch,4,5,101,15,w,0.666828003,0,STAR,TRIANGLE,CIRCLE,1,0,77,102,78,1,2,21,22,1
Stranger,Stranger,Bottom,Match,4,6,102,20,o,1.366797644,1,STAR,TRIANGLE,CIRCLE,1,0,78,103,78,1,2,21,22,1
P1,Stranger,Top,Mismatch,4,7,103,2,w,0.850126352,0,STAR,TRIANGLE,CIRCLE,1,0,79,104,78,1,2,21,22,1
Stranger,P1,Top,Mismatch,4,8,104,18,o,0.483700203,0,STAR,TRIANGLE,CIRCLE,0,0,79,105,78,1,2,21,22,1
P1,Stranger,Top,Mismatch,4,9,105,2,None,None,1,STAR,TRIANGLE,CIRCLE,3,0,79,106,78,1,2,21,22,1
Stranger,P1,Bottom,Mismatch,4,10,106,22,w,1.01680177,0,STAR,TRIANGLE,CIRCLE,1,0,80,107,78,1,2,21,22,1
P1,P1,Top,Match,4,11,107,1,o,0.616816298,0,STAR,TRIANGLE,CIRCLE,1,0,81,108,78,1,2,21,22,1
P1,P1,Bottom,Match,4,12,108,4,o,0.466818686,0,STAR,TRIANGLE,CIRCLE,1,0,82,109,78,1,2,21,22,1
Stranger,Stranger,Bottom,Match,4,13,109,21,o,0.800138728,0,STAR,TRIANGLE,CIRCLE,1,0,83,110,78,1,2,21,22,1
P1,P1,Top,Match,4,14,110,1,o,0.450435392,0,STAR,TRIANGLE,CIRCLE,1,0,84,111,78,1,2,21,22,1
Stranger,Stranger,Bottom,Match,4,15,111,21,w,0.733474483,0,STAR,TRIANGLE,CIRCLE,0,0,84,112,78,1,2,21,22,1
P1,P2,Top,Mismatch,4,16,112,3,w,0.916824154,0,STAR,TRIANGLE,CIRCLE,1,0,85,113,78,1,2,21,22,1
P2,Stranger,Top,Mismatch,4,17,113,11,w,1.366770404,0,STAR,TRIANGLE,CIRCLE,1,0,86,114,78,1,2,21,22,1
P2,P2,Bottom,Match,4,18,114,12,o,0.63345502,0,STAR,TRIANGLE,CIRCLE,1,0,87,115,78,1,2,21,22,1
P1,P1,Top,Match,4,19,115,1,o,0.566791959,0,STAR,TRIANGLE,CIRCLE,1,0,88,116,78,1,2,21,22,1
Stranger,Stranger,Top,Match,4,20,116,17,o,0.350161685,0,STAR,TRIANGLE,CIRCLE,1,0,89,117,78,1,2,21,22,1
P2,P2,Top,Match,4,21,117,8,o,0.600152309,0,STAR,TRIANGLE,CIRCLE,1,0,90,118,78,1,2,21,22,1
Stranger,P1,Bottom,Mismatch,4,22,118,22,o,0.40013786,0,STAR,TRIANGLE,CIRCLE,0,0,90,119,78,1,2,21,22,1
P2,P2,Top,Match,4,23,119,9,o,0.716778122,0,STAR,TRIANGLE,CIRCLE,1,0,91,120,78,1,2,21,22,1
Stranger,P2,Bottom,Mismatch,0,0,0,23,w,1.150099072,0,STAR,TRIANGLE,CIRCLE,1,0,1,1,78,2,2,21,22,1
P1,P1,Top,Match,0,1,1,1,o,0.516833945,0,STAR,TRIANGLE,CIRCLE,1,0,2,2,78,2,2,21,22,1
P2,P2,Bottom,Match,0,2,2,12,o,0.400146545,0,STAR,TRIANGLE,CIRCLE,1,0,3,3,78,2,2,21,22,1
P2,P2,Bottom,Match,0,3,3,13,o,0.500137189,0,STAR,TRIANGLE,CIRCLE,1,0,4,4,78,2,2,21,22,1
P1,P1,Bottom,Match,0,4,4,4,o,0.516807889,0,STAR,TRIANGLE,CIRCLE,1,0,5,5,78,2,2,21,22,1
Stranger,Stranger,Bottom,Match,0,5,5,20,o,0.38350427,0,STAR,TRIANGLE,CIRCLE,1,0,6,6,78,2,2,21,22,1
P1,Stranger,Top,Mismatch,0,6,6,2,o,0.550152447,0,STAR,TRIANGLE,CIRCLE,0,0,6,7,78,2,2,21,22,1
P2,P2,Top,Match,0,7,7,9,o,0.683526338,0,STAR,TRIANGLE,CIRCLE,1,0,7,8,78,2,2,21,22,1
P1,P1,Bottom,Match,0,8,8,5,o,1.133467456,1,STAR,TRIANGLE,CIRCLE,1,0,8,9,78,2,2,21,22,1
P2,P2,Top,Match,0,9,9,9,o,0.533465561,0,STAR,TRIANGLE,CIRCLE,1,0,9,10,78,2,2,21,22,1
Stranger,P1,Bottom,Mismatch,0,10,10,22,w,0.58352622,0,STAR,TRIANGLE,CIRCLE,1,0,10,11,78,2,2,21,22,1
Stranger,P2,Bottom,Mismatch,0,11,11,23,o,0.650156119,0,STAR,TRIANGLE,CIRCLE,0,0,10,12,78,2,2,21,22,1
Stranger,P2,Top,Mismatch,0,12,12,19,w,1.433448861,0,STAR,TRIANGLE,CIRCLE,1,0,11,13,78,2,2,21,22,1
P1,P2,Top,Mismatch,0,13,13,3,w,0.733502118,0,STAR,TRIANGLE,CIRCLE,1,0,12,14,78,2,2,21,22,1
P1,P2,Bottom,Mismatch,0,14,14,7,w,0.733481194,0,STAR,TRIANGLE,CIRCLE,1,0,13,15,78,2,2,21,22,1
Stranger,P2,Bottom,Mismatch,0,15,15,23,w,0.433498605,0,STAR,TRIANGLE,CIRCLE,1,0,14,16,78,2,2,21,22,1
P2,P2,Bottom,Match,0,16,16,12,o,0.883461435,0,STAR,TRIANGLE,CIRCLE,1,0,15,17,78,2,2,21,22,1
P2,P1,Top,Mismatch,0,17,17,10,w,0.783482635,0,STAR,TRIANGLE,CIRCLE,1,0,16,18,78,2,2,21,22,1
Stranger,Stranger,Bottom,Match,0,18,18,21,o,0.533475431,0,STAR,TRIANGLE,CIRCLE,1,0,17,19,78,2,2,21,22,1
P1,P1,Top,Match,0,19,19,1,o,0.616805244,0,STAR,TRIANGLE,CIRCLE,1,0,18,20,78,2,2,21,22,1
P2,Stranger,Top,Mismatch,0,20,20,11,w,0.616788268,0,STAR,TRIANGLE,CIRCLE,1,0,19,21,78,2,2,21,22,1
P2,P1,Bottom,Mismatch,0,21,21,14,w,1.383478214,0,STAR,TRIANGLE,CIRCLE,1,0,20,22,78,2,2,21,22,1
P1,P1,Top,Match,0,22,22,1,o,0.500174299,0,STAR,TRIANGLE,CIRCLE,1,0,21,23,78,2,2,21,22,1
P1,P2,Top,Mismatch,0,23,23,3,w,0.400111804,0,STAR,TRIANGLE,CIRCLE,1,0,22,24,78,2,2,21,22,1
Stranger,P1,Top,Mismatch,1,0,24,18,w,0.850159514,0,STAR,TRIANGLE,CIRCLE,1,0,23,25,78,2,2,21,22,1
P2,P1,Bottom,Mismatch,1,1,25,14,w,0.733488301,0,STAR,TRIANGLE,CIRCLE,1,0,24,26,78,2,2,21,22,1
Stranger,Stranger,Bottom,Match,1,2,26,20,o,0.550154026,0,STAR,TRIANGLE,CIRCLE,1,0,25,27,78,2,2,21,22,1
P2,P2,Bottom,Match,1,3,27,13,w,0.533496749,0,STAR,TRIANGLE,CIRCLE,0,0,25,28,78,2,2,21,22,1
Stranger,P1,Top,Mismatch,1,4,28,18,o,0.716830629,0,STAR,TRIANGLE,CIRCLE,0,0,25,29,78,2,2,21,22,1
P2,P2,Top,Match,1,5,29,8,o,0.700157165,0,STAR,TRIANGLE,CIRCLE,1,0,26,30,78,2,2,21,22,1
P2,P2,Top,Match,1,6,30,9,o,0.633513843,0,STAR,TRIANGLE,CIRCLE,1,0,27,31,78,2,2,21,22,1
P1,P2,Bottom,Mismatch,1,7,31,7,w,1.016789926,0,STAR,TRIANGLE,CIRCLE,1,0,28,32,78,2,2,21,22,1
Stranger,Stranger,Bottom,Match,1,8,32,21,o,0.53351412,0,STAR,TRIANGLE,CIRCLE,1,0,29,33,78,2,2,21,22,1
P2,P2,Top,Match,1,9,33,8,o,0.466823424,0,STAR,TRIANGLE,CIRCLE,1,0,30,34,78,2,2,21,22,1
P1,Stranger,Bottom,Mismatch,1,10,34,6,w,1.08347549,0,STAR,TRIANGLE,CIRCLE,1,0,31,35,78,2,2,21,22,1
Stranger,P2,Bottom,Mismatch,1,11,35,23,w,0.816815745,0,STAR,TRIANGLE,CIRCLE,1,0,32,36,78,2,2,21,22,1
Stranger,P1,Bottom,Mismatch,1,12,36,22,w,0.666828398,0,STAR,TRIANGLE,CIRCLE,1,0,33,37,78,2,2,21,22,1
P1,P1,Top,Match,1,13,37,0,o,0.38348532,0,STAR,TRIANGLE,CIRCLE,1,0,34,38,78,2,2,21,22,1
Stranger,Stranger,Bottom,Match,1,14,38,20,o,0.616814719,0,STAR,TRIANGLE,CIRCLE,1,0,35,39,78,2,2,21,22,1
P1,Stranger,Top,Mismatch,1,15,39,2,w,0.733493433,0,STAR,TRIANGLE,CIRCLE,1,0,36,40,78,2,2,21,22,1
P1,P2,Bottom,Mismatch,1,16,40,7,o,0.500158112,0,STAR,TRIANGLE,CIRCLE,0,0,36,41,78,2,2,21,22,1
Stranger,P2,Top,Mismatch,1,17,41,19,w,0.683475806,0,STAR,TRIANGLE,CIRCLE,1,0,37,42,78,2,2,21,22,1
Stranger,Stranger,Bottom,Match,1,18,42,20,o,0.816794427,0,STAR,TRIANGLE,CIRCLE,1,0,38,43,78,2,2,21,22,1
P1,P2,Top,Mismatch,1,19,43,3,o,0.616807218,0,STAR,TRIANGLE,CIRCLE,0,0,38,44,78,2,2,21,22,1
P2,P2,Top,Match,1,20,44,9,w,0.633479892,0,STAR,TRIANGLE,CIRCLE,0,0,38,45,78,2,2,21,22,1
Stranger,Stranger,Bottom,Match,1,21,45,21,None,None,1,STAR,TRIANGLE,CIRCLE,3,0,38,46,78,2,2,21,22,1
Stranger,P1,Top,Mismatch,1,22,46,18,w,0.683465146,0,STAR,TRIANGLE,CIRCLE,1,0,39,47,78,2,2,21,22,1
P2,Stranger,Bottom,Mismatch,1,23,47,15,w,1.133455612,0,STAR,TRIANGLE,CIRCLE,1,0,40,48,78,2,2,21,22,1
P1,Stranger,Bottom,Mismatch,2,0,48,6,w,0.833456836,0,STAR,TRIANGLE,CIRCLE,1,0,41,49,78,2,2,21,22,1
P1,P2,Top,Mismatch,2,1,49,3,w,1.050119877,0,STAR,TRIANGLE,CIRCLE,1,0,42,50,78,2,2,21,22,1
P2,Stranger,Top,Mismatch,2,2,50,11,w,0.833470259,0,STAR,TRIANGLE,CIRCLE,1,0,43,51,78,2,2,21,22,1
P1,P1,Top,Match,2,3,51,0,o,0.500142716,0,STAR,TRIANGLE,CIRCLE,1,0,44,52,78,2,2,21,22,1
Stranger,P2,Top,Mismatch,2,4,52,19,w,0.883423141,0,STAR,TRIANGLE,CIRCLE,1,0,45,53,78,2,2,21,22,1
Stranger,P1,Bottom,Mismatch,2,5,53,22,w,1.033478391,0,STAR,TRIANGLE,CIRCLE,1,0,46,54,78,2,2,21,22,1
P1,Stranger,Bottom,Mismatch,2,6,54,6,w,0.883481964,0,STAR,TRIANGLE,CIRCLE,1,0,47,55,78,2,2,21,22,1
P1,P1,Top,Match,2,7,55,1,o,0.566823937,0,STAR,TRIANGLE,CIRCLE,1,0,48,56,78,2,2,21,22,1
P2,Stranger,Top,Mismatch,2,8,56,11,w,0.633472785,0,STAR,TRIANGLE,CIRCLE,1,0,49,57,78,2,2,21,22,1
Stranger,Stranger,Top,Match,2,9,57,17,o,0.883493808,0,STAR,TRIANGLE,CIRCLE,1,0,50,58,78,2,2,21,22,1
P2,Stranger,Bottom,Mismatch,2,10,58,15,w,1.066810317,0,STAR,TRIANGLE,CIRCLE,1,0,51,59,78,2,2,21,22,1
Stranger,Stranger,Top,Match,2,11,59,16,w,0.750138077,0,STAR,TRIANGLE,CIRCLE,0,0,51,60,78,2,2,21,22,1
Stranger,Stranger,Top,Match,2,12,60,17,o,0.516808678,0,STAR,TRIANGLE,CIRCLE,1,0,52,61,78,2,2,21,22,1
P2,P2,Bottom,Match,2,13,61,12,w,0.583566488,0,STAR,TRIANGLE,CIRCLE,0,0,52,62,78,2,2,21,22,1
P2,P2,Top,Match,2,14,62,9,o,0.533484116,0,STAR,TRIANGLE,CIRCLE,1,0,53,63,78,2,2,21,22,1
P2,P2,Top,Match,2,15,63,8,o,0.367120975,0,STAR,TRIANGLE,CIRCLE,1,0,54,64,78,2,2,21,22,1
P2,Stranger,Bottom,Mismatch,2,16,64,15,w,0.650180201,0,STAR,TRIANGLE,CIRCLE,1,0,55,65,78,2,2,21,22,1
Stranger,Stranger,Top,Match,2,17,65,16,o,0.583482793,0,STAR,TRIANGLE,CIRCLE,1,0,56,66,78,2,2,21,22,1
P1,P1,Bottom,Match,2,18,66,5,o,0.500136004,0,STAR,TRIANGLE,CIRCLE,1,0,57,67,78,2,2,21,22,1
Stranger,Stranger,Top,Match,2,19,67,16,o,0.516822101,0,STAR,TRIANGLE,CIRCLE,1,0,58,68,78,2,2,21,22,1
P2,P1,Top,Mismatch,2,20,68,10,o,0.383532695,0,STAR,TRIANGLE,CIRCLE,0,0,58,69,78,2,2,21,22,1
Stranger,P1,Top,Mismatch,2,21,69,18,w,0.966867048,0,STAR,TRIANGLE,CIRCLE,1,0,59,70,78,2,2,21,22,1
P1,Stranger,Top,Mismatch,2,22,70,2,w,1.20011512,0,STAR,TRIANGLE,CIRCLE,1,0,60,71,78,2,2,21,22,1
Stranger,P2,Bottom,Mismatch,2,23,71,23,w,0.783456185,0,STAR,TRIANGLE,CIRCLE,1,0,61,72,78,2,2,21,22,1
Stranger,Stranger,Top,Match,3,0,72,16,o,0.583496611,0,STAR,TRIANGLE,CIRCLE,1,0,62,73,78,2,2,21,22,1
P2,P1,Bottom,Mismatch,3,1,73,14,w,1.200133675,0,STAR,TRIANGLE,CIRCLE,1,0,63,74,78,2,2,21,22,1
P2,P1,Bottom,Mismatch,3,2,74,14,w,0.58348832,0,STAR,TRIANGLE,CIRCLE,1,0,64,75,78,2,2,21,22,1
P1,P2,Bottom,Mismatch,3,3,75,7,w,0.750152289,0,STAR,TRIANGLE,CIRCLE,1,0,65,76,78,2,2,21,22,1
Stranger,P1,Bottom,Mismatch,3,4,76,22,w,0.916789018,0,STAR,TRIANGLE,CIRCLE,1,0,66,77,78,2,2,21,22,1
Stranger,P1,Top,Mismatch,3,5,77,18,w,0.650136379,0,STAR,TRIANGLE,CIRCLE,1,0,67,78,78,2,2,21,22,1
Stranger,P1,Bottom,Mismatch,3,6,78,22,w,0.733489485,0,STAR,TRIANGLE,CIRCLE,1,0,68,79,78,2,2,21,22,1
P2,P1,Top,Mismatch,3,7,79,10,w,0.716857869,0,STAR,TRIANGLE,CIRCLE,1,0,69,80,78,2,2,21,22,1
P2,P2,Top,Match,3,8,80,8,o,0.683435537,0,STAR,TRIANGLE,CIRCLE,1,0,70,81,78,2,2,21,22,1
P1,P1,Top,Match,3,9,81,0,o,0.766797723,0,STAR,TRIANGLE,CIRCLE,1,0,71,82,78,2,2,21,22,1
Stranger,Stranger,Bottom,Match,3,10,82,21,o,0.516844999,0,STAR,TRIANGLE,CIRCLE,1,0,72,83,78,2,2,21,22,1
P1,Stranger,Top,Mismatch,3,11,83,2,w,0.933533149,0,STAR,TRIANGLE,CIRCLE,1,0,73,84,78,2,2,21,22,1
P2,P2,Bottom,Match,3,12,84,13,o,0.516837893,0,STAR,TRIANGLE,CIRCLE,1,0,74,85,78,2,2,21,22,1
P1,P1,Top,Match,3,13,85,1,o,0.600146387,0,STAR,TRIANGLE,CIRCLE,1,0,75,86,78,2,2,21,22,1
Stranger,P2,Top,Mismatch,3,14,86,19,w,0.667157651,0,STAR,TRIANGLE,CIRCLE,1,0,76,87,78,2,2,21,22,1
P1,P1,Bottom,Match,3,15,87,5,o,0.483490176,0,STAR,TRIANGLE,CIRCLE,1,0,77,88,78,2,2,21,22,1
P1,P2,Bottom,Mismatch,3,16,88,7,w,0.933473536,0,STAR,TRIANGLE,CIRCLE,1,0,78,89,78,2,2,21,22,1
P1,P1,Bottom,Match,3,17,89,5,o,0.500147453,0,STAR,TRIANGLE,CIRCLE,1,0,79,90,78,2,2,21,22,1
Stranger,P2,Top,Mismatch,3,18,90,19,w,0.666788919,0,STAR,TRIANGLE,CIRCLE,1,0,80,91,78,2,2,21,22,1
P2,Stranger,Top,Mismatch,3,19,91,11,None,None,0,STAR,TRIANGLE,CIRCLE,3,0,80,92,78,2,2,21,22,1
P2,Stranger,Bottom,Mismatch,3,20,92,15,o,0.800145835,0,STAR,TRIANGLE,CIRCLE,0,0,80,93,78,2,2,21,22,1
Stranger,Stranger,Top,Match,3,21,93,16,o,0.550180872,0,STAR,TRIANGLE,CIRCLE,1,0,81,94,78,2,2,21,22,1
P1,P1,Top,Match,3,22,94,0,w,0.566833807,0,STAR,TRIANGLE,CIRCLE,0,0,81,95,78,2,2,21,22,1
P2,P1,Top,Mismatch,3,23,95,10,w,1.216748315,0,STAR,TRIANGLE,CIRCLE,1,0,82,96,78,2,2,21,22,1
P2,P2,Bottom,Match,4,0,96,13,o,0.716837735,0,STAR,TRIANGLE,CIRCLE,1,0,83,97,78,2,2,21,22,1
P2,P2,Bottom,Match,4,1,97,12,o,0.416829089,0,STAR,TRIANGLE,CIRCLE,1,0,84,98,78,2,2,21,22,1
P1,P1,Bottom,Match,4,2,98,4,o,0.58352543,0,STAR,TRIANGLE,CIRCLE,1,0,85,99,78,2,2,21,22,1
Stranger,Stranger,Top,Match,4,3,99,17,o,0.366848966,0,STAR,TRIANGLE,CIRCLE,1,0,86,100,78,2,2,21,22,1
P1,Stranger,Bottom,Mismatch,4,4,100,6,o,0.416915942,0,STAR,TRIANGLE,CIRCLE,0,0,86,101,78,2,2,21,22,1
P1,P1,Bottom,Match,4,5,101,4,o,0.566746559,0,STAR,TRIANGLE,CIRCLE,1,0,87,102,78,2,2,21,22,1
P1,Stranger,Bottom,Mismatch,4,6,102,6,w,0.716823128,0,STAR,TRIANGLE,CIRCLE,1,0,88,103,78,2,2,21,22,1
P1,Stranger,Top,Mismatch,4,7,103,2,w,0.766810751,0,STAR,TRIANGLE,CIRCLE,1,0,89,104,78,2,2,21,22,1
P1,P1,Top,Match,4,8,104,0,o,0.583478451,0,STAR,TRIANGLE,CIRCLE,1,0,90,105,78,2,2,21,22,1
P2,P2,Bottom,Match,4,9,105,12,w,0.650171516,0,STAR,TRIANGLE,CIRCLE,0,0,90,106,78,2,2,21,22,1
P2,P1,Top,Mismatch,4,10,106,10,None,None,1,STAR,TRIANGLE,CIRCLE,3,0,90,107,78,2,2,21,22,1
P2,P2,Top,Match,4,11,107,8,o,0.700182037,0,STAR,TRIANGLE,CIRCLE,1,0,91,108,78,2,2,21,22,1
P2,Stranger,Bottom,Mismatch,4,12,108,15,w,0.983471423,0,STAR,TRIANGLE,CIRCLE,1,0,92,109,78,2,2,21,22,1
P1,P1,Bottom,Match,4,13,109,5,o,0.450198124,0,STAR,TRIANGLE,CIRCLE,1,0,93,110,78,2,2,21,22,1
P1,P2,Top,Mismatch,4,14,110,3,w,0.833833069,0,STAR,TRIANGLE,CIRCLE,1,0,94,111,78,2,2,21,22,1
P1,P1,Bottom,Match,4,15,111,4,o,0.666802737,0,STAR,TRIANGLE,CIRCLE,1,0,95,112,78,2,2,21,22,1
P2,Stranger,Top,Mismatch,4,16,112,11,w,0.883475253,0,STAR,TRIANGLE,CIRCLE,1,0,96,113,78,2,2,21,22,1
P2,P2,Bottom,Match,4,17,113,13,o,0.6337519,0,STAR,TRIANGLE,CIRCLE,1,0,97,114,78,2,2,21,22,1
P2,P1,Bottom,Mismatch,4,18,114,14,w,0.783489742,0,STAR,TRIANGLE,CIRCLE,1,0,98,115,78,2,2,21,22,1
Stranger,Stranger,Top,Match,4,19,115,17,o,0.483496098,0,STAR,TRIANGLE,CIRCLE,1,0,99,116,78,2,2,21,22,1
Stranger,Stranger,Top,Match,4,20,116,17,o,0.416840933,0,STAR,TRIANGLE,CIRCLE,1,0,100,117,78,2,2,21,22,1
Stranger,Stranger,Bottom,Match,4,21,117,21,o,0.400207737,0,STAR,TRIANGLE,CIRCLE,1,0,101,118,78,2,2,21,22,1
P1,P1,Bottom,Match,4,22,118,4,o,0.516829602,0,STAR,TRIANGLE,CIRCLE,1,0,102,119,78,2,2,21,22,1
Stranger,Stranger,Bottom,Match,4,23,119,20,o,0.533496354,0,STAR,TRIANGLE,CIRCLE,1,0,103,120,78,2,2,21,22,1
P2,P2,Top,Match,0,0,0,9,o,0.8001257,0,TRIANGLE,CIRCLE,STAR,1,0,1,1,78,3,2,21,22,2
P1,P1,Top,Match,0,1,1,0,o,0.416877253,0,TRIANGLE,CIRCLE,STAR,1,0,2,2,78,3,2,21,22,2
P2,Stranger,Top,Mismatch,0,2,2,11,None,None,1,TRIANGLE,CIRCLE,STAR,3,0,2,3,78,3,2,21,22,2
P1,P1,Bottom,Match,0,3,3,5,o,0.76685023,0,TRIANGLE,CIRCLE,STAR,1,0,3,4,78,3,2,21,22,2
Stranger,P1,Bottom,Mismatch,0,4,4,22,o,0.483505178,0,TRIANGLE,CIRCLE,STAR,0,0,3,5,78,3,2,21,22,2
P1,Stranger,Bottom,Mismatch,0,5,5,6,w,0.866778497,0,TRIANGLE,CIRCLE,STAR,1,0,4,6,78,3,2,21,22,2
P1,P1,Bottom,Match,0,6,6,4,o,0.866815607,0,TRIANGLE,CIRCLE,STAR,1,0,5,7,78,3,2,21,22,2
P2,Stranger,Bottom,Mismatch,0,7,7,15,w,0.916792966,0,TRIANGLE,CIRCLE,STAR,1,0,6,8,78,3,2,21,22,2
P2,Stranger,Bottom,Mismatch,0,8,8,15,w,0.716799835,0,TRIANGLE,CIRCLE,STAR,1,0,7,9,78,3,2,21,22,2
P2,P2,Top,Match,0,9,9,8,o,0.616853408,0,TRIANGLE,CIRCLE,STAR,1,0,8,10,78,3,2,21,22,2
P2,P2,Top,Match,0,10,10,8,o,0.483475964,0,TRIANGLE,CIRCLE,STAR,1,0,9,11,78,3,2,21,22,2
P1,Stranger,Bottom,Mismatch,0,11,11,6,o,0.666823661,0,TRIANGLE,CIRCLE,STAR,0,0,9,12,78,3,2,21,22,2
Stranger,P1,Top,Mismatch,0,12,12,18,o,0.716792334,0,TRIANGLE,CIRCLE,STAR,0,0,9,13,78,3,2,21,22,2
Stranger,P1,Top,Mismatch,0,13,13,18,w,0.400184445,0,TRIANGLE,CIRCLE,STAR,1,0,10,14,78,3,2,21,22,2
Stranger,P2,Top,Mismatch,0,14,14,19,w,0.700142558,0,TRIANGLE,CIRCLE,STAR,1,0,11,15,78,3,2,21,22,2
Stranger,P1,Top,Mismatch,0,15,15,18,w,0.733580681,0,TRIANGLE,CIRCLE,STAR,1,0,12,16,78,3,2,21,22,2
P2,P2,Bottom,Match,0,16,16,12,o,0.616819456,0,TRIANGLE,CIRCLE,STAR,1,0,13,17,78,3,2,21,22,2
P2,P1,Bottom,Mismatch,0,17,17,14,w,0.683438696,0,TRIANGLE,CIRCLE,STAR,1,0,14,18,78,3,2,21,22,2
P2,Stranger,Top,Mismatch,0,18,18,11,w,0.750184267,0,TRIANGLE,CIRCLE,STAR,1,0,15,19,78,3,2,21,22,2
Stranger,Stranger,Bottom,Match,0,19,19,21,o,0.700153217,0,TRIANGLE,CIRCLE,STAR,1,0,16,20,78,3,2,21,22,2
P2,Stranger,Top,Mismatch,0,20,20,11,w,0.633470022,0,TRIANGLE,CIRCLE,STAR,1,0,17,21,78,3,2,21,22,2
P1,P2,Top,Mismatch,0,21,21,3,o,0.416800664,0,TRIANGLE,CIRCLE,STAR,0,0,17,22,78,3,2,21,22,2
Stranger,Stranger,Top,Match,0,22,22,17,w,1.150225009,1,TRIANGLE,CIRCLE,STAR,0,0,17,23,78,3,2,21,22,2
Stranger,Stranger,Bottom,Match,0,23,23,20,w,0.433481234,0,TRIANGLE,CIRCLE,STAR,0,0,17,24,78,3,2,21,22,2
P2,P2,Top,Match,1,0,24,9,o,0.983502612,0,TRIANGLE,CIRCLE,STAR,1,0,18,25,78,3,2,21,22,2
Stranger,P1,Bottom,Mismatch,1,1,25,22,w,0.516891189,0,TRIANGLE,CIRCLE,STAR,1,0,19,26,78,3,2,21,22,2
P2,Stranger,Bottom,Mismatch,1,2,26,15,w,0.800502723,0,TRIANGLE,CIRCLE,STAR,1,0,20,27,78,3,2,21,22,2
Stranger,P2,Top,Mismatch,1,3,27,19,w,1.166769377,0,TRIANGLE,CIRCLE,STAR,1,0,21,28,78,3,2,21,22,2
P1,P1,Bottom,Match,1,4,28,4,o,0.416751711,0,TRIANGLE,CIRCLE,STAR,1,0,22,29,78,3,2,21,22,2
P1,Stranger,Bottom,Mismatch,1,5,29,6,w,0.566868548,0,TRIANGLE,CIRCLE,STAR,1,0,23,30,78,3,2,21,22,2
P2,P2,Bottom,Match,1,6,30,12,o,0.516835524,0,TRIANGLE,CIRCLE,STAR,1,0,24,31,78,3,2,21,22,2
P1,P1,Top,Match,1,7,31,1,o,0.733472904,0,TRIANGLE,CIRCLE,STAR,1,0,25,32,78,3,2,21,22,2
P1,Stranger,Top,Mismatch,1,8,32,2,w,0.700107027,0,TRIANGLE,CIRCLE,STAR,1,0,26,33,78,3,2,21,22,2
Stranger,P2,Bottom,Mismatch,1,9,33,23,w,0.800196367,0,TRIANGLE,CIRCLE,STAR,1,0,27,34,78,3,2,21,22,2
P1,P1,Bottom,Match,1,10,34,4,o,0.566831438,0,TRIANGLE,CIRCLE,STAR,1,0,28,35,78,3,2,21,22,2
P2,Stranger,Top,Mismatch,1,11,35,11,w,0.433493078,0,TRIANGLE,CIRCLE,STAR,1,0,29,36,78,3,2,21,22,2
P2,Stranger,Bottom,Mismatch,1,12,36,15,w,0.483489781,0,TRIANGLE,CIRCLE,STAR,1,0,30,37,78,3,2,21,22,2
P1,P1,Top,Match,1,13,37,0,o,0.583498585,0,TRIANGLE,CIRCLE,STAR,1,0,31,38,78,3,2,21,22,2
Stranger,P1,Top,Mismatch,1,14,38,18,w,0.550204954,0,TRIANGLE,CIRCLE,STAR,1,0,32,39,78,3,2,21,22,2
P1,P2,Bottom,Mismatch,1,15,39,7,w,0.683424878,0,TRIANGLE,CIRCLE,STAR,1,0,33,40,78,3,2,21,22,2
Stranger,Stranger,Top,Match,1,16,40,17,w,0.750150315,0,TRIANGLE,CIRCLE,STAR,0,0,33,41,78,3,2,21,22,2
P2,Stranger,Bottom,Mismatch,1,17,41,15,w,0.933557625,0,TRIANGLE,CIRCLE,STAR,1,0,34,42,78,3,2,21,22,2
P2,P2,Bottom,Match,1,18,42,13,o,0.633477128,0,TRIANGLE,CIRCLE,STAR,1,0,35,43,78,3,2,21,22,2
Stranger,Stranger,Top,Match,1,19,43,17,o,0.500168377,0,TRIANGLE,CIRCLE,STAR,1,0,36,44,78,3,2,21,22,2
P1,P1,Bottom,Match,1,20,44,4,o,0.483518601,0,TRIANGLE,CIRCLE,STAR,1,0,37,45,78,3,2,21,22,2
Stranger,Stranger,Top,Match,1,21,45,17,o,0.350173529,0,TRIANGLE,CIRCLE,STAR,1,0,38,46,78,3,2,21,22,2
Stranger,Stranger,Bottom,Match,1,22,46,20,w,0.700429569,0,TRIANGLE,CIRCLE,STAR,0,0,38,47,78,3,2,21,22,2
P2,P2,Bottom,Match,1,23,47,13,o,0.450165357,0,TRIANGLE,CIRCLE,STAR,1,0,39,48,78,3,2,21,22,2
P2,P2,Top,Match,2,0,48,8,w,0.567305973,0,TRIANGLE,CIRCLE,STAR,0,0,39,49,78,3,2,21,22,2
P1,P2,Top,Mismatch,2,1,49,3,w,0.68346712,0,TRIANGLE,CIRCLE,STAR,1,0,40,50,78,3,2,21,22,2
Stranger,P2,Bottom,Mismatch,2,2,50,23,o,0.483446749,0,TRIANGLE,CIRCLE,STAR,0,0,40,51,78,3,2,21,22,2
P2,P1,Top,Mismatch,2,3,51,10,w,0.866804158,0,TRIANGLE,CIRCLE,STAR,1,0,41,52,78,3,2,21,22,2
P1,P1,Top,Match,2,4,52,0,o,0.433494657,0,TRIANGLE,CIRCLE,STAR,1,0,42,53,78,3,2,21,22,2
P2,P2,Top,Match,2,5,53,8,w,0.516862764,0,TRIANGLE,CIRCLE,STAR,0,0,42,54,78,3,2,21,22,2
P1,P2,Bottom,Mismatch,2,6,54,7,w,0.766819042,0,TRIANGLE,CIRCLE,STAR,1,0,43,55,78,3,2,21,22,2
Stranger,P2,Top,Mismatch,2,7,55,19,w,0.883442091,0,TRIANGLE,CIRCLE,STAR,1,0,44,56,78,3,2,21,22,2
P2,P1,Top,Mismatch,2,8,56,10,w,0.883459856,0,TRIANGLE,CIRCLE,STAR,1,0,45,57,78,3,2,21,22,2
P2,Stranger,Top,Mismatch,2,9,57,11,w,0.983503007,0,TRIANGLE,CIRCLE,STAR,1,0,46,58,78,3,2,21,22,2
Stranger,P1,Top,Mismatch,2,10,58,18,w,1.233455731,0,TRIANGLE,CIRCLE,STAR,1,0,47,59,78,3,2,21,22,2
P1,P2,Bottom,Mismatch,2,11,59,7,w,0.816794032,0,TRIANGLE,CIRCLE,STAR,1,0,48,60,78,3,2,21,22,2
P1,P1,Top,Match,2,12,60,1,o,0.500185353,0,TRIANGLE,CIRCLE,STAR,1,0,49,61,78,3,2,21,22,2
Stranger,Stranger,Bottom,Match,2,13,61,21,o,0.750138472,0,TRIANGLE,CIRCLE,STAR,1,0,50,62,78,3,2,21,22,2
P2,P2,Bottom,Match,2,14,62,13,o,0.350166423,0,TRIANGLE,CIRCLE,STAR,1,0,51,63,78,3,2,21,22,2
P1,P1,Top,Match,2,15,63,1,o,0.450164567,0,TRIANGLE,CIRCLE,STAR,1,0,52,64,78,3,2,21,22,2
Stranger,Stranger,Top,Match,2,16,64,16,o,0.433494657,0,TRIANGLE,CIRCLE,STAR,1,0,53,65,78,3,2,21,22,2
P2,P1,Bottom,Mismatch,2,17,65,14,w,1.233462837,0,TRIANGLE,CIRCLE,STAR,1,0,54,66,78,3,2,21,22,2
P1,P1,Top,Match,2,18,66,1,o,0.567266889,0,TRIANGLE,CIRCLE,STAR,1,0,55,67,78,3,2,21,22,2
P1,P1,Top,Match,2,19,67,0,w,0.3335277,0,TRIANGLE,CIRCLE,STAR,0,0,55,68,78,3,2,21,22,2
P1,Stranger,Bottom,Mismatch,2,20,68,6,w,1.266878062,0,TRIANGLE,CIRCLE,STAR,1,0,56,69,78,3,2,21,22,2
P1,Stranger,Top,Mismatch,2,21,69,2,w,0.666796025,0,TRIANGLE,CIRCLE,STAR,1,0,57,70,78,3,2,21,22,2
P2,P1,Top,Mismatch,2,22,70,10,w,0.75005833,0,TRIANGLE,CIRCLE,STAR,1,0,58,71,78,3,2,21,22,2
Stranger,P2,Bottom,Mismatch,2,23,71,23,o,0.616843933,0,TRIANGLE,CIRCLE,STAR,0,0,58,72,78,3,2,21,22,2
Stranger,Stranger,Top,Match,3,0,72,16,w,0.883494598,0,TRIANGLE,CIRCLE,STAR,0,0,58,73,78,3,2,21,22,2
P2,P1,Top,Mismatch,3,1,73,10,w,1.433446493,1,TRIANGLE,CIRCLE,STAR,1,0,59,74,78,3,2,21,22,2
P1,P1,Bottom,Match,3,2,74,5,o,0.483497677,0,TRIANGLE,CIRCLE,STAR,1,0,60,75,78,3,2,21,22,2
P2,P2,Bottom,Match,3,3,75,13,o,0.550156,0,TRIANGLE,CIRCLE,STAR,1,0,61,76,78,3,2,21,22,2
P2,P1,Bottom,Mismatch,3,4,76,14,o,0.533512541,0,TRIANGLE,CIRCLE,STAR,0,0,61,77,78,3,2,21,22,2
Stranger,P2,Top,Mismatch,3,5,77,19,w,0.883472095,0,TRIANGLE,CIRCLE,STAR,1,0,62,78,78,3,2,21,22,2
P1,P2,Top,Mismatch,3,6,78,3,w,0.766815883,0,TRIANGLE,CIRCLE,STAR,1,0,63,79,78,3,2,21,22,2
Stranger,Stranger,Bottom,Match,3,7,79,21,o,0.683483701,0,TRIANGLE,CIRCLE,STAR,1,0,64,80,78,3,2,21,22,2
P1,Stranger,Top,Mismatch,3,8,80,2,w,0.966810593,0,TRIANGLE,CIRCLE,STAR,1,0,65,81,78,3,2,21,22,2
Stranger,Stranger,Bottom,Match,3,9,81,21,o,0.800155309,0,TRIANGLE,CIRCLE,STAR,1,0,66,82,78,3,2,21,22,2
P1,P1,Bottom,Match,3,10,82,4,o,0.583503322,0,TRIANGLE,CIRCLE,STAR,1,0,67,83,78,3,2,21,22,2
P1,P1,Bottom,Match,3,11,83,5,o,0.516843814,0,TRIANGLE,CIRCLE,STAR,1,0,68,84,78,3,2,21,22,2
P2,P1,Bottom,Mismatch,3,12,84,14,w,0.516820917,0,TRIANGLE,CIRCLE,STAR,1,0,69,85,78,3,2,21,22,2
P1,P2,Bottom,Mismatch,3,13,85,7,w,0.683517258,0,TRIANGLE,CIRCLE,STAR,1,0,70,86,78,3,2,21,22,2
Stranger,Stranger,Top,Match,3,14,86,16,o,0.650167568,0,TRIANGLE,CIRCLE,STAR,1,0,71,87,78,3,2,21,22,2
P2,P2,Top,Match,3,15,87,9,o,0.450225365,0,TRIANGLE,CIRCLE,STAR,1,0,72,88,78,3,2,21,22,2
P2,P2,Top,Match,3,16,88,9,o,0.433510053,0,TRIANGLE,CIRCLE,STAR,1,0,73,89,78,3,2,21,22,2
P2,P2,Top,Match,3,17,89,8,o,0.40018405,0,TRIANGLE,CIRCLE,STAR,1,0,74,90,78,3,2,21,22,2
Stranger,P2,Bottom,Mismatch,3,18,90,23,w,0.700161902,0,TRIANGLE,CIRCLE,STAR,1,0,75,91,78,3,2,21,22,2
Stranger,P1,Bottom,Mismatch,3,19,91,22,o,0.516844604,0,TRIANGLE,CIRCLE,STAR,0,0,75,92,78,3,2,21,22,2
P1,P2,Bottom,Mismatch,3,20,92,7,w,0.733475667,0,TRIANGLE,CIRCLE,STAR,1,0,76,93,78,3,2,21,22,2
P2,P2,Bottom,Match,3,21,93,13,o,0.650169936,0,TRIANGLE,CIRCLE,STAR,1,0,77,94,78,3,2,21,22,2
Stranger,P1,Bottom,Mismatch,3,22,94,22,w,0.45018786,0,TRIANGLE,CIRCLE,STAR,1,0,78,95,78,3,2,21,22,2
Stranger,P2,Bottom,Mismatch,3,23,95,23,w,0.750167686,0,TRIANGLE,CIRCLE,STAR,1,0,79,96,78,3,2,21,22,2
Stranger,Stranger,Bottom,Match,4,0,96,20,o,0.666786551,0,TRIANGLE,CIRCLE,STAR,1,0,80,97,78,3,2,21,22,2
P1,P1,Top,Match,4,1,97,0,o,0.516813811,0,TRIANGLE,CIRCLE,STAR,1,0,81,98,78,3,2,21,22,2
Stranger,Stranger,Top,Match,4,2,98,16,w,0.433483603,0,TRIANGLE,CIRCLE,STAR,0,0,81,99,78,3,2,21,22,2
P1,Stranger,Top,Mismatch,4,3,99,2,w,1.016807691,0,TRIANGLE,CIRCLE,STAR,1,0,82,100,78,3,2,21,22,2
P2,P1,Bottom,Mismatch,4,4,100,14,w,1.050129747,0,TRIANGLE,CIRCLE,STAR,1,0,83,101,78,3,2,21,22,2
Stranger,Stranger,Bottom,Match,4,5,101,21,o,0.600108488,0,TRIANGLE,CIRCLE,STAR,1,0,84,102,78,3,2,21,22,2
P1,Stranger,Top,Mismatch,4,6,102,2,w,0.816784952,0,TRIANGLE,CIRCLE,STAR,1,0,85,103,78,3,2,21,22,2
Stranger,Stranger,Top,Match,4,7,103,16,o,0.400172206,0,TRIANGLE,CIRCLE,STAR,1,0,86,104,78,3,2,21,22,2
P1,P1,Bottom,Match,4,8,104,5,o,0.583915086,0,TRIANGLE,CIRCLE,STAR,1,0,87,105,78,3,2,21,22,2
P2,P2,Bottom,Match,4,9,105,12,o,0.367237832,0,TRIANGLE,CIRCLE,STAR,1,0,88,106,78,3,2,21,22,2
Stranger,P2,Top,Mismatch,4,10,106,19,o,0.383487294,0,TRIANGLE,CIRCLE,STAR,0,0,88,107,78,3,2,21,22,2
P2,P2,Bottom,Match,4,11,107,12,o,0.616806823,0,TRIANGLE,CIRCLE,STAR,1,0,89,108,78,3,2,21,22,2
P2,P2,Bottom,Match,4,12,108,12,o,0.483481885,0,TRIANGLE,CIRCLE,STAR,1,0,90,109,78,3,2,21,22,2
P1,P1,Bottom,Match,4,13,109,5,o,0.466851454,0,TRIANGLE,CIRCLE,STAR,1,0,91,110,78,3,2,21,22,2
Stranger,Stranger,Top,Match,4,14,110,17,o,0.733763862,0,TRIANGLE,CIRCLE,STAR,1,0,92,111,78,3,2,21,22,2
Stranger,P1,Bottom,Mismatch,4,15,111,22,o,0.650146249,0,TRIANGLE,CIRCLE,STAR,0,0,92,112,78,3,2,21,22,2
P2,P1,Top,Mismatch,4,16,112,10,w,0.766826543,0,TRIANGLE,CIRCLE,STAR,1,0,93,113,78,3,2,21,22,2
P1,Stranger,Bottom,Mismatch,4,17,113,6,w,0.666831951,0,TRIANGLE,CIRCLE,STAR,1,0,94,114,78,3,2,21,22,2
Stranger,Stranger,Bottom,Match,4,18,114,20,o,0.40016589,0,TRIANGLE,CIRCLE,STAR,1,0,95,115,78,3,2,21,22,2
P1,P2,Top,Mismatch,4,19,115,3,w,0.350170371,0,TRIANGLE,CIRCLE,STAR,1,0,96,116,78,3,2,21,22,2
P2,P2,Top,Match,4,20,116,9,o,0.850146091,0,TRIANGLE,CIRCLE,STAR,1,0,97,117,78,3,2,21,22,2
P1,P2,Top,Mismatch,4,21,117,3,w,0.733493828,0,TRIANGLE,CIRCLE,STAR,1,0,98,118,78,3,2,21,22,2
P1,P1,Top,Match,4,22,118,1,o,0.450155487,0,TRIANGLE,CIRCLE,STAR,1,0,99,119,78,3,2,21,22,2
Stranger,Stranger,Bottom,Match,4,23,119,20,w,0.500156928,0,TRIANGLE,CIRCLE,STAR,0,0,99,120,78,3,2,21,22,2
P1,P1,Bottom,Match,0,0,0,4,o,0.766815488,0,TRIANGLE,CIRCLE,STAR,1,0,1,1,78,4,2,21,22,2
P2,P2,Bottom,Match,0,1,1,12,o,0.567305578,0,TRIANGLE,CIRCLE,STAR,1,0,2,2,78,4,2,21,22,2
Stranger,Stranger,Top,Match,0,2,2,17,o,0.300190248,0,TRIANGLE,CIRCLE,STAR,1,0,3,3,78,4,2,21,22,2
P1,P2,Top,Mismatch,0,3,3,3,w,0.583415679,0,TRIANGLE,CIRCLE,STAR,1,0,4,4,78,4,2,21,22,2
Stranger,P2,Bottom,Mismatch,0,4,4,23,w,0.716836945,0,TRIANGLE,CIRCLE,STAR,1,0,5,5,78,4,2,21,22,2
P1,Stranger,Top,Mismatch,0,5,5,2,o,0.616826957,0,TRIANGLE,CIRCLE,STAR,0,0,5,6,78,4,2,21,22,2
P2,P2,Top,Match,0,6,6,8,o,0.616811166,0,TRIANGLE,CIRCLE,STAR,1,0,6,7,78,4,2,21,22,2
P1,P1,Top,Match,0,7,7,1,o,0.633491341,0,TRIANGLE,CIRCLE,STAR,1,0,7,8,78,4,2,21,22,2
P2,P1,Bottom,Mismatch,0,8,8,14,w,0.717089609,0,TRIANGLE,CIRCLE,STAR,1,0,8,9,78,4,2,21,22,2
P2,Stranger,Bottom,Mismatch,0,9,9,15,o,0.600174417,0,TRIANGLE,CIRCLE,STAR,0,0,8,10,78,4,2,21,22,2
P2,P2,Top,Match,0,10,10,8,w,0.650164015,0,TRIANGLE,CIRCLE,STAR,0,0,8,11,78,4,2,21,22,2
Stranger,P1,Top,Mismatch,0,11,11,18,None,None,1,TRIANGLE,CIRCLE,STAR,3,0,8,12,78,4,2,21,22,2
Stranger,Stranger,Bottom,Match,0,12,12,21,o,1.116861896,0,TRIANGLE,CIRCLE,STAR,1,0,9,13,78,4,2,21,22,2
Stranger,Stranger,Bottom,Match,0,13,13,21,o,0.53358755,0,TRIANGLE,CIRCLE,STAR,1,0,10,14,78,4,2,21,22,2
P2,P2,Top,Match,0,14,14,9,o,0.400154441,0,TRIANGLE,CIRCLE,STAR,1,0,11,15,78,4,2,21,22,2
Stranger,P2,Top,Mismatch,0,15,15,19,o,0.43349742,0,TRIANGLE,CIRCLE,STAR,0,0,11,16,78,4,2,21,22,2
Stranger,Stranger,Top,Match,0,16,16,17,o,1.366784221,1,TRIANGLE,CIRCLE,STAR,1,0,12,17,78,4,2,21,22,2
P2,P2,Bottom,Match,0,17,17,12,o,0.533491617,0,TRIANGLE,CIRCLE,STAR,1,0,13,18,78,4,2,21,22,2
P2,P2,Bottom,Match,0,18,18,13,o,0.5168146,0,TRIANGLE,CIRCLE,STAR,1,0,14,19,78,4,2,21,22,2
Stranger,P1,Bottom,Mismatch,0,19,19,22,o,0.366816989,0,TRIANGLE,CIRCLE,STAR,0,0,14,20,78,4,2,21,22,2
P1,Stranger,Bottom,Mismatch,0,20,20,6,w,0.900121871,0,TRIANGLE,CIRCLE,STAR,1,0,15,21,78,4,2,21,22,2
Stranger,P2,Top,Mismatch,0,21,21,19,w,0.717125535,0,TRIANGLE,CIRCLE,STAR,1,0,16,22,78,4,2,21,22,2
Stranger,Stranger,Bottom,Match,0,22,22,20,o,0.900078444,0,TRIANGLE,CIRCLE,STAR,1,0,17,23,78,4,2,21,22,2
P1,P1,Top,Match,0,23,23,0,o,0.516826049,0,TRIANGLE,CIRCLE,STAR,1,0,18,24,78,4,2,21,22,2
P2,P2,Top,Match,1,0,24,9,o,0.517115428,0,TRIANGLE,CIRCLE,STAR,1,0,19,25,78,4,2,21,22,2
P1,P1,Top,Match,1,1,25,1,o,0.616827352,0,TRIANGLE,CIRCLE,STAR,1,0,20,26,78,4,2,21,22,2
Stranger,P1,Top,Mismatch,1,2,26,18,o,0.350172739,0,TRIANGLE,CIRCLE,STAR,0,0,20,27,78,4,2,21,22,2
P1,P1,Top,Match,1,3,27,1,o,0.583560567,0,TRIANGLE,CIRCLE,STAR,1,0,21,28,78,4,2,21,22,2
Stranger,Stranger,Bottom,Match,1,4,28,20,o,0.650156119,0,TRIANGLE,CIRCLE,STAR,1,0,22,29,78,4,2,21,22,2
Stranger,P1,Top,Mismatch,1,5,29,18,w,0.850138985,0,TRIANGLE,CIRCLE,STAR,1,0,23,30,78,4,2,21,22,2
Stranger,P1,Bottom,Mismatch,1,6,30,22,o,0.566844861,0,TRIANGLE,CIRCLE,STAR,0,0,23,31,78,4,2,21,22,2
P1,P2,Bottom,Mismatch,1,7,31,7,w,0.800132807,0,TRIANGLE,CIRCLE,STAR,1,0,24,32,78,4,2,21,22,2
Stranger,Stranger,Bottom,Match,1,8,32,20,o,0.783494479,0,TRIANGLE,CIRCLE,STAR,1,0,25,33,78,4,2,21,22,2
Stranger,Stranger,Top,Match,1,9,33,16,w,0.516836708,0,TRIANGLE,CIRCLE,STAR,0,0,25,34,78,4,2,21,22,2
P1,P2,Top,Mismatch,1,10,34,3,w,0.733466587,0,TRIANGLE,CIRCLE,STAR,1,0,26,35,78,4,2,21,22,2
P1,P1,Top,Match,1,11,35,1,o,0.616827747,0,TRIANGLE,CIRCLE,STAR,1,0,27,36,78,4,2,21,22,2
P2,P1,Bottom,Mismatch,1,12,36,14,w,0.767108026,0,TRIANGLE,CIRCLE,STAR,1,0,28,37,78,4,2,21,22,2
P2,P2,Bottom,Match,1,13,37,12,o,0.833504605,0,TRIANGLE,CIRCLE,STAR,1,0,29,38,78,4,2,21,22,2
P2,P1,Bottom,Mismatch,1,14,38,14,w,0.866787577,0,TRIANGLE,CIRCLE,STAR,1,0,30,39,78,4,2,21,22,2
Stranger,P2,Bottom,Mismatch,1,15,39,23,w,0.800155309,0,TRIANGLE,CIRCLE,STAR,1,0,31,40,78,4,2,21,22,2
P2,P2,Bottom,Match,1,16,40,13,o,0.383482162,0,TRIANGLE,CIRCLE,STAR,1,0,32,41,78,4,2,21,22,2
Stranger,P2,Top,Mismatch,1,17,41,19,w,0.750182293,0,TRIANGLE,CIRCLE,STAR,1,0,33,42,78,4,2,21,22,2
Stranger,Stranger,Bottom,Match,1,18,42,20,o,0.600157836,0,TRIANGLE,CIRCLE,STAR,1,0,34,43,78,4,2,21,22,2
P1,Stranger,Bottom,Mismatch,1,19,43,6,w,0.56683657,0,TRIANGLE,CIRCLE,STAR,1,0,35,44,78,4,2,21,22,2
Stranger,P2,Top,Mismatch,1,20,44,19,w,1.066805579,0,TRIANGLE,CIRCLE,STAR,1,0,36,45,78,4,2,21,22,2
P1,P1,Bottom,Match,1,21,45,4,o,0.3669449,0,TRIANGLE,CIRCLE,STAR,1,0,37,46,78,4,2,21,22,2
Stranger,Stranger,Top,Match,1,22,46,16,w,0.733485932,0,TRIANGLE,CIRCLE,STAR,0,0,37,47,78,4,2,21,22,2
P2,P2,Bottom,Match,1,23,47,13,o,0.450172463,0,TRIANGLE,CIRCLE,STAR,1,0,38,48,78,4,2,21,22,2
Stranger,P1,Bottom,Mismatch,2,0,48,22,o,0.500185353,0,TRIANGLE,CIRCLE,STAR,0,0,38,49,78,4,2,21,22,2
P2,P1,Top,Mismatch,2,1,49,10,w,0.733458692,0,TRIANGLE,CIRCLE,STAR,1,0,39,50,78,4,2,21,22,2
P2,P2,Top,Match,2,2,50,9,o,0.700424041,0,TRIANGLE,CIRCLE,STAR,1,0,40,51,78,4,2,21,22,2
P1,Stranger,Bottom,Mismatch,2,3,51,6,w,0.483784688,0,TRIANGLE,CIRCLE,STAR,1,0,41,52,78,4,2,21,22,2
P2,Stranger,Top,Mismatch,2,4,52,11,w,0.883518285,0,TRIANGLE,CIRCLE,STAR,1,0,42,53,78,4,2,21,22,2
Stranger,Stranger,Bottom,Match,2,5,53,21,o,0.516775121,0,TRIANGLE,CIRCLE,STAR,1,0,43,54,78,4,2,21,22,2
Stranger,Stranger,Bottom,Match,2,6,54,20,o,0.616807612,0,TRIANGLE,CIRCLE,STAR,1,0,44,55,78,4,2,21,22,2
Stranger,Stranger,Top,Match,2,7,55,17,o,0.400176944,0,TRIANGLE,CIRCLE,STAR,1,0,45,56,78,4,2,21,22,2
P1,P2,Top,Mismatch,2,8,56,3,w,0.616823009,0,TRIANGLE,CIRCLE,STAR,1,0,46,57,78,4,2,21,22,2
P1,Stranger,Top,Mismatch,2,9,57,2,w,0.750135313,0,TRIANGLE,CIRCLE,STAR,1,0,47,58,78,4,2,21,22,2
Stranger,Stranger,Bottom,Match,2,10,58,21,o,0.433504132,0,TRIANGLE,CIRCLE,STAR,1,0,48,59,78,4,2,21,22,2
P1,P1,Top,Match,2,11,59,1,w,0.533501881,0,TRIANGLE,CIRCLE,STAR,0,0,48,60,78,4,2,21,22,2
P2,Stranger,Top,Mismatch,2,12,60,11,None,None,1,TRIANGLE,CIRCLE,STAR,3,0,48,61,78,4,2,21,22,2
P1,P2,Bottom,Mismatch,2,13,61,7,None,None,1,TRIANGLE,CIRCLE,STAR,3,0,48,62,78,4,2,21,22,2
P2,P2,Bottom,Match,2,14,62,12,o,0.800119384,0,TRIANGLE,CIRCLE,STAR,1,0,49,63,78,4,2,21,22,2
Stranger,P1,Top,Mismatch,2,15,63,18,o,0.400140623,0,TRIANGLE,CIRCLE,STAR,0,0,49,64,78,4,2,21,22,2
Stranger,Stranger,Top,Match,2,16,64,17,o,0.550523153,0,TRIANGLE,CIRCLE,STAR,1,0,50,65,78,4,2,21,22,2
Stranger,P1,Bottom,Mismatch,2,17,65,22,o,0.350092597,0,TRIANGLE,CIRCLE,STAR,0,0,50,66,78,4,2,21,22,2
P2,P1,Top,Mismatch,2,18,66,10,w,1.250144986,0,TRIANGLE,CIRCLE,STAR,1,0,51,67,78,4,2,21,22,2
P2,P1,Bottom,Mismatch,2,19,67,14,w,0.883509599,0,TRIANGLE,CIRCLE,STAR,1,0,52,68,78,4,2,21,22,2
P1,Stranger,Bottom,Mismatch,2,20,68,6,o,0.650136774,0,TRIANGLE,CIRCLE,STAR,0,0,52,69,78,4,2,21,22,2
P1,P1,Top,Match,2,21,69,0,o,0.583505691,0,TRIANGLE,CIRCLE,STAR,1,0,53,70,78,4,2,21,22,2
P1,P2,Top,Mismatch,2,22,70,3,None,None,1,TRIANGLE,CIRCLE,STAR,3,0,53,71,78,4,2,21,22,2
P1,P1,Bottom,Match,2,23,71,5,o,0.600166521,0,TRIANGLE,CIRCLE,STAR,1,0,54,72,78,4,2,21,22,2
P1,P1,Bottom,Match,3,0,72,5,o,0.500157718,0,TRIANGLE,CIRCLE,STAR,1,0,55,73,78,4,2,21,22,2
P2,P2,Top,Match,3,1,73,8,w,0.56680854,0,TRIANGLE,CIRCLE,STAR,0,0,55,74,78,4,2,21,22,2
Stranger,P2,Bottom,Mismatch,3,2,74,23,w,0.700180457,0,TRIANGLE,CIRCLE,STAR,1,0,56,75,78,4,2,21,22,2
P1,P1,Bottom,Match,3,3,75,4,o,0.600145203,0,TRIANGLE,CIRCLE,STAR,1,0,57,76,78,4,2,21,22,2
P2,Stranger,Bottom,Mismatch,3,4,76,15,w,1.200072088,0,TRIANGLE,CIRCLE,STAR,1,0,58,77,78,4,2,21,22,2
P1,P1,Bottom,Match,3,5,77,5,o,0.466855796,0,TRIANGLE,CIRCLE,STAR,1,0,59,78,78,4,2,21,22,2
P1,P1,Top,Match,3,6,78,0,o,0.750147947,0,TRIANGLE,CIRCLE,STAR,1,0,60,79,78,4,2,21,22,2
P2,Stranger,Bottom,Mismatch,3,7,79,15,w,1.000136597,0,TRIANGLE,CIRCLE,STAR,1,0,61,80,78,4,2,21,22,2
Stranger,Stranger,Top,Match,3,8,80,16,o,0.633468838,0,TRIANGLE,CIRCLE,STAR,1,0,62,81,78,4,2,21,22,2
P2,P2,Top,Match,3,9,81,8,o,0.383805888,0,TRIANGLE,CIRCLE,STAR,1,0,63,82,78,4,2,21,22,2
P2,P1,Top,Mismatch,3,10,82,10,o,0.383500322,0,TRIANGLE,CIRCLE,STAR,0,0,63,83,78,4,2,21,22,2
P1,P1,Bottom,Match,3,11,83,4,None,None,1,TRIANGLE,CIRCLE,STAR,3,0,63,84,78,4,2,21,22,2
P1,P2,Bottom,Mismatch,3,12,84,7,o,0.716846025,0,TRIANGLE,CIRCLE,STAR,0,0,63,85,78,4,2,21,22,2
P1,Stranger,Bottom,Mismatch,3,13,85,6,w,1.283444933,0,TRIANGLE,CIRCLE,STAR,1,0,64,86,78,4,2,21,22,2
P2,P2,Bottom,Match,3,14,86,13,o,0.650169936,0,TRIANGLE,CIRCLE,STAR,1,0,65,87,78,4,2,21,22,2
P2,P2,Top,Match,3,15,87,9,o,0.666839452,0,TRIANGLE,CIRCLE,STAR,1,0,66,88,78,4,2,21,22,2
P1,Stranger,Top,Mismatch,3,16,88,2,w,0.600132175,0,TRIANGLE,CIRCLE,STAR,1,0,67,89,78,4,2,21,22,2
P2,P1,Top,Mismatch,3,17,89,10,o,0.516883293,0,TRIANGLE,CIRCLE,STAR,0,0,67,90,78,4,2,21,22,2
P2,P2,Top,Match,3,18,90,9,o,1.033451546,0,TRIANGLE,CIRCLE,STAR,1,0,68,91,78,4,2,21,22,2
P2,Stranger,Top,Mismatch,3,19,91,11,w,0.783495663,0,TRIANGLE,CIRCLE,STAR,1,0,69,92,78,4,2,21,22,2
Stranger,P1,Bottom,Mismatch,3,20,92,22,w,1.066814265,0,TRIANGLE,CIRCLE,STAR,1,0,70,93,78,4,2,21,22,2
P1,P1,Bottom,Match,3,21,93,4,o,0.416833432,0,TRIANGLE,CIRCLE,STAR,1,0,71,94,78,4,2,21,22,2
Stranger,P1,Top,Mismatch,3,22,94,18,w,0.733463034,0,TRIANGLE,CIRCLE,STAR,1,0,72,95,78,4,2,21,22,2
P2,P2,Bottom,Match,3,23,95,13,w,0.583518324,0,TRIANGLE,CIRCLE,STAR,0,0,72,96,78,4,2,21,22,2
P1,Stranger,Top,Mismatch,4,0,96,2,w,0.650157698,0,TRIANGLE,CIRCLE,STAR,1,0,73,97,78,4,2,21,22,2
P2,Stranger,Bottom,Mismatch,4,1,97,15,w,0.78350198,0,TRIANGLE,CIRCLE,STAR,1,0,74,98,78,4,2,21,22,2
P2,P1,Bottom,Mismatch,4,2,98,14,o,0.583479635,0,TRIANGLE,CIRCLE,STAR,0,0,74,99,78,4,2,21,22,2
P2,Stranger,Bottom,Mismatch,4,3,99,15,None,None,1,TRIANGLE,CIRCLE,STAR,3,0,74,100,78,4,2,21,22,2
P2,P2,Top,Match,4,4,100,8,o,0.617317283,0,TRIANGLE,CIRCLE,STAR,1,0,75,101,78,4,2,21,22,2
P1,Stranger,Top,Mismatch,4,5,101,2,w,0.616877885,0,TRIANGLE,CIRCLE,STAR,1,0,76,102,78,4,2,21,22,2
Stranger,Stranger,Top,Match,4,6,102,17,o,0.733473299,0,TRIANGLE,CIRCLE,STAR,1,0,77,103,78,4,2,21,22,2
P2,P2,Bottom,Match,4,7,103,12,o,0.583494242,0,TRIANGLE,CIRCLE,STAR,1,0,78,104,78,4,2,21,22,2
P2,Stranger,Top,Mismatch,4,8,104,11,w,0.666802342,0,TRIANGLE,CIRCLE,STAR,1,0,79,105,78,4,2,21,22,2
Stranger,Stranger,Top,Match,4,9,105,16,o,0.583554645,0,TRIANGLE,CIRCLE,STAR,1,0,80,106,78,4,2,21,22,2
P1,P1,Bottom,Match,4,10,106,5,o,0.516844604,0,TRIANGLE,CIRCLE,STAR,1,0,81,107,78,4,2,21,22,2
P2,P1,Top,Mismatch,4,11,107,10,o,0.433508869,0,TRIANGLE,CIRCLE,STAR,0,0,81,108,78,4,2,21,22,2
P1,P1,Top,Match,4,12,108,0,o,0.616807612,0,TRIANGLE,CIRCLE,STAR,1,0,82,109,78,4,2,21,22,2
P1,P2,Top,Mismatch,4,13,109,3,w,0.500143505,0,TRIANGLE,CIRCLE,STAR,1,0,83,110,78,4,2,21,22,2
P1,P2,Bottom,Mismatch,4,14,110,7,w,0.567102657,0,TRIANGLE,CIRCLE,STAR,1,0,84,111,78,4,2,21,22,2
P2,Stranger,Top,Mismatch,4,15,111,11,o,0.533488459,0,TRIANGLE,CIRCLE,STAR,0,0,84,112,78,4,2,21,22,2
Stranger,P2,Bottom,Mismatch,4,16,112,23,o,0.766832859,0,TRIANGLE,CIRCLE,STAR,0,0,84,113,78,4,2,21,22,2
Stranger,P2,Bottom,Mismatch,4,17,113,23,w,0.500157718,0,TRIANGLE,CIRCLE,STAR,1,0,85,114,78,4,2,21,22,2
P1,P1,Bottom,Match,4,18,114,5,w,0.666817739,0,TRIANGLE,CIRCLE,STAR,0,0,85,115,78,4,2,21,22,2
Stranger,Stranger,Bottom,Match,4,19,115,21,o,0.683475411,0,TRIANGLE,CIRCLE,STAR,1,0,86,116,78,4,2,21,22,2
P1,P1,Top,Match,4,20,116,0,o,0.550148105,0,TRIANGLE,CIRCLE,STAR,1,0,87,117,78,4,2,21,22,2
Stranger,P2,Top,Mismatch,4,21,117,19,w,0.366842255,0,TRIANGLE,CIRCLE,STAR,1,0,88,118,78,4,2,21,22,2
P1,P2,Bottom,Mismatch,4,22,118,7,w,0.700152822,0,TRIANGLE,CIRCLE,STAR,1,0,89,119,78,4,2,21,22,2
Stranger,Stranger,Top,Match,4,23,119,16,o,0.75014242,0,TRIANGLE,CIRCLE,STAR,1,0,90,120,78,4,2,21,22,2
Stranger,P1,Bottom,Mismatch,0,0,0,22,o,0.800180181,0,TRIANGLE,CIRCLE,DIAMOND,1,0,1,1,78,1,3,21,22,1
P2,P2,Top,Match,0,1,1,8,w,0.750151105,0,TRIANGLE,CIRCLE,DIAMOND,1,0,2,2,78,1,3,21,22,1
P1,P1,Bottom,Match,0,2,2,5,w,0.633532398,0,TRIANGLE,CIRCLE,DIAMOND,1,0,3,3,78,1,3,21,22,1
Stranger,P1,Bottom,Mismatch,0,3,3,22,o,0.866833767,0,TRIANGLE,CIRCLE,DIAMOND,1,0,4,4,78,1,3,21,22,1
P2,P2,Top,Match,0,4,4,9,w,0.66674944,0,TRIANGLE,CIRCLE,DIAMOND,1,0,5,5,78,1,3,21,22,1
Stranger,P2,Top,Mismatch,0,5,5,19,o,0.783427365,0,TRIANGLE,CIRCLE,DIAMOND,1,0,6,6,78,1,3,21,22,1
P1,Stranger,Bottom,Mismatch,0,6,6,6,o,1.233486524,0,TRIANGLE,CIRCLE,DIAMOND,1,0,7,7,78,1,3,21,22,1
Stranger,P2,Top,Mismatch,0,7,7,19,o,1.133424819,0,TRIANGLE,CIRCLE,DIAMOND,1,0,8,8,78,1,3,21,22,1
P2,P2,Bottom,Match,0,8,8,13,w,0.68350502,0,TRIANGLE,CIRCLE,DIAMOND,1,0,9,9,78,1,3,21,22,1
Stranger,Stranger,Top,Match,0,9,9,17,w,0.833452888,0,TRIANGLE,CIRCLE,DIAMOND,1,0,10,10,78,1,3,21,22,1
P1,Stranger,Top,Mismatch,0,10,10,2,o,0.750130576,0,TRIANGLE,CIRCLE,DIAMOND,1,0,11,11,78,1,3,21,22,1
P2,Stranger,Bottom,Mismatch,0,11,11,15,o,1.183387965,0,TRIANGLE,CIRCLE,DIAMOND,1,0,12,12,78,1,3,21,22,1
Stranger,Stranger,Bottom,Match,0,12,12,20,w,0.516816969,0,TRIANGLE,CIRCLE,DIAMOND,1,0,13,13,78,1,3,21,22,1
P1,P1,Top,Match,0,13,13,1,w,0.566806566,0,TRIANGLE,CIRCLE,DIAMOND,1,0,14,14,78,1,3,21,22,1
P2,Stranger,Bottom,Mismatch,0,14,14,15,o,1.000155152,0,TRIANGLE,CIRCLE,DIAMOND,1,0,15,15,78,1,3,21,22,1
P2,P2,Bottom,Match,0,15,15,12,w,0.783737668,0,TRIANGLE,CIRCLE,DIAMOND,1,0,16,16,78,1,3,21,22,1
P2,P2,Bottom,Match,0,16,16,12,w,0.866776523,0,TRIANGLE,CIRCLE,DIAMOND,1,0,17,17,78,1,3,21,22,1
Stranger,P2,Bottom,Mismatch,0,17,17,23,o,0.766808382,0,TRIANGLE,CIRCLE,DIAMOND,1,0,18,18,78,1,3,21,22,1
P1,P1,Bottom,Match,0,18,18,4,w,0.650170331,0,TRIANGLE,CIRCLE,DIAMOND,1,0,19,19,78,1,3,21,22,1
P2,Stranger,Top,Mismatch,0,19,19,11,o,0.8000803,0,TRIANGLE,CIRCLE,DIAMOND,1,0,20,20,78,1,3,21,22,1
Stranger,P2,Top,Mismatch,0,20,20,19,o,0.916783096,0,TRIANGLE,CIRCLE,DIAMOND,1,0,21,21,78,1,3,21,22,1
P1,P1,Top,Match,0,21,21,0,w,0.583483978,0,TRIANGLE,CIRCLE,DIAMOND,1,0,22,22,78,1,3,21,22,1
P2,P1,Top,Mismatch,0,22,22,10,o,0.683463567,0,TRIANGLE,CIRCLE,DIAMOND,1,0,23,23,78,1,3,21,22,1
P2,Stranger,Bottom,Mismatch,0,23,23,15,o,0.950115416,0,TRIANGLE,CIRCLE,DIAMOND,1,0,24,24,78,1,3,21,22,1
Stranger,P1,Bottom,Mismatch,1,0,24,22,o,1.016815982,0,TRIANGLE,CIRCLE,DIAMOND,1,0,25,25,78,1,3,21,22,1
Stranger,Stranger,Bottom,Match,1,1,25,21,w,0.600142045,0,TRIANGLE,CIRCLE,DIAMOND,1,0,26,26,78,1,3,21,22,1
P1,Stranger,Top,Mismatch,1,2,26,2,o,0.666861165,0,TRIANGLE,CIRCLE,DIAMOND,1,0,27,27,78,1,3,21,22,1
Stranger,P2,Bottom,Mismatch,1,3,27,23,o,0.683508968,0,TRIANGLE,CIRCLE,DIAMOND,1,0,28,28,78,1,3,21,22,1
P1,P2,Bottom,Mismatch,1,4,28,7,o,0.616790637,0,TRIANGLE,CIRCLE,DIAMOND,1,0,29,29,78,1,3,21,22,1
P1,P2,Top,Mismatch,1,5,29,3,o,0.616823799,0,TRIANGLE,CIRCLE,DIAMOND,1,0,30,30,78,1,3,21,22,1
P2,Stranger,Top,Mismatch,1,6,30,11,o,0.816778635,0,TRIANGLE,CIRCLE,DIAMOND,1,0,31,31,78,1,3,21,22,1
Stranger,Stranger,Bottom,Match,1,7,31,21,w,0.500156139,0,TRIANGLE,CIRCLE,DIAMOND,1,0,32,32,78,1,3,21,22,1
P1,P1,Top,Match,1,8,32,1,w,0.583444104,0,TRIANGLE,CIRCLE,DIAMOND,1,0,33,33,78,1,3,21,22,1
Stranger,Stranger,Top,Match,1,9,33,17,w,0.933494065,0,TRIANGLE,CIRCLE,DIAMOND,1,0,34,34,78,1,3,21,22,1
P2,P1,Top,Mismatch,1,10,34,10,w,0.500159692,0,TRIANGLE,CIRCLE,DIAMOND,0,0,34,35,78,1,3,21,22,1
P1,P1,Top,Match,1,11,35,0,o,0.66681458,0,TRIANGLE,CIRCLE,DIAMOND,0,0,34,36,78,1,3,21,22,1
P1,P1,Top,Match,1,12,36,0,w,0.483466094,0,TRIANGLE,CIRCLE,DIAMOND,1,0,35,37,78,1,3,21,22,1
P1,P2,Top,Mismatch,1,13,37,3,o,0.666797605,0,TRIANGLE,CIRCLE,DIAMOND,1,0,36,38,78,1,3,21,22,1
P1,P2,Bottom,Mismatch,1,14,38,7,o,0.950435589,0,TRIANGLE,CIRCLE,DIAMOND,1,0,37,39,78,1,3,21,22,1
Stranger,Stranger,Top,Match,1,15,39,16,w,0.550168239,0,TRIANGLE,CIRCLE,DIAMOND,1,0,38,40,78,1,3,21,22,1
P2,P2,Top,Match,1,16,40,9,w,0.850109376,0,TRIANGLE,CIRCLE,DIAMOND,1,0,39,41,78,1,3,21,22,1
Stranger,P1,Top,Mismatch,1,17,41,18,o,0.783510665,0,TRIANGLE,CIRCLE,DIAMOND,1,0,40,42,78,1,3,21,22,1
P2,P2,Top,Match,1,18,42,8,w,0.716795492,0,TRIANGLE,CIRCLE,DIAMOND,1,0,41,43,78,1,3,21,22,1
P2,P2,Top,Match,1,19,43,8,w,1.150110521,1,TRIANGLE,CIRCLE,DIAMOND,1,0,42,44,78,1,3,21,22,1
P1,Stranger,Bottom,Mismatch,1,20,44,6,o,1.400103119,1,TRIANGLE,CIRCLE,DIAMOND,1,0,43,45,78,1,3,21,22,1
P1,Stranger,Bottom,Mismatch,1,21,45,6,o,1.216786215,0,TRIANGLE,CIRCLE,DIAMOND,1,0,44,46,78,1,3,21,22,1
P1,P1,Top,Match,1,22,46,1,w,0.650151776,0,TRIANGLE,CIRCLE,DIAMOND,1,0,45,47,78,1,3,21,22,1
Stranger,P2,Bottom,Mismatch,1,23,47,23,o,0.91679415,0,TRIANGLE,CIRCLE,DIAMOND,1,0,46,48,78,1,3,21,22,1
P2,P2,Bottom,Match,2,0,48,12,w,0.61681156,0,TRIANGLE,CIRCLE,DIAMOND,1,0,47,49,78,1,3,21,22,1
Stranger,Stranger,Top,Match,2,1,49,17,w,0.616832089,0,TRIANGLE,CIRCLE,DIAMOND,1,0,48,50,78,1,3,21,22,1
P2,P1,Bottom,Mismatch,2,2,50,14,o,0.966769535,0,TRIANGLE,CIRCLE,DIAMOND,1,0,49,51,78,1,3,21,22,1
P1,P1,Bottom,Match,2,3,51,4,w,0.700141373,0,TRIANGLE,CIRCLE,DIAMOND,1,0,50,52,78,1,3,21,22,1
P1,P1,Bottom,Match,2,4,52,4,w,0.600170469,0,TRIANGLE,CIRCLE,DIAMOND,1,0,51,53,78,1,3,21,22,1
P2,P2,Top,Match,2,5,53,9,w,0.683471463,0,TRIANGLE,CIRCLE,DIAMOND,1,0,52,54,78,1,3,21,22,1
P1,P2,Top,Mismatch,2,6,54,3,o,0.750155842,0,TRIANGLE,CIRCLE,DIAMOND,1,0,53,55,78,1,3,21,22,1
Stranger,Stranger,Bottom,Match,2,7,55,21,w,0.583432261,0,TRIANGLE,CIRCLE,DIAMOND,1,0,54,56,78,1,3,21,22,1
P2,P1,Bottom,Mismatch,2,8,56,14,w,0.650139538,0,TRIANGLE,CIRCLE,DIAMOND,0,0,54,57,78,1,3,21,22,1
P2,P1,Bottom,Mismatch,2,9,57,14,None,None,1,TRIANGLE,CIRCLE,DIAMOND,3,0,54,58,78,1,3,21,22,1
Stranger,Stranger,Top,Match,2,10,58,17,w,0.583543985,0,TRIANGLE,CIRCLE,DIAMOND,1,0,55,59,78,1,3,21,22,1
P1,P1,Bottom,Match,2,11,59,5,w,0.683480543,0,TRIANGLE,CIRCLE,DIAMOND,1,0,56,60,78,1,3,21,22,1
P2,P2,Top,Match,2,12,60,8,w,0.70016664,0,TRIANGLE,CIRCLE,DIAMOND,1,0,57,61,78,1,3,21,22,1
P1,P2,Top,Mismatch,2,13,61,3,o,0.73347093,0,TRIANGLE,CIRCLE,DIAMOND,1,0,58,62,78,1,3,21,22,1
P1,P1,Bottom,Match,2,14,62,5,w,0.500161271,0,TRIANGLE,CIRCLE,DIAMOND,1,0,59,63,78,1,3,21,22,1
Stranger,Stranger,Top,Match,2,15,63,17,w,0.5668267,0,TRIANGLE,CIRCLE,DIAMOND,1,0,60,64,78,1,3,21,22,1
P2,Stranger,Top,Mismatch,2,16,64,11,w,0.55045446,0,TRIANGLE,CIRCLE,DIAMOND,0,0,60,65,78,1,3,21,22,1
Stranger,Stranger,Top,Match,2,17,65,16,w,0.700183616,0,TRIANGLE,CIRCLE,DIAMOND,1,0,61,66,78,1,3,21,22,1
P1,Stranger,Top,Mismatch,2,18,66,2,o,0.716871686,0,TRIANGLE,CIRCLE,DIAMOND,1,0,62,67,78,1,3,21,22,1
P1,P2,Top,Mismatch,2,19,67,3,o,0.750128997,0,TRIANGLE,CIRCLE,DIAMOND,1,0,63,68,78,1,3,21,22,1
Stranger,P2,Bottom,Mismatch,2,20,68,23,o,0.933496433,0,TRIANGLE,CIRCLE,DIAMOND,1,0,64,69,78,1,3,21,22,1
P1,Stranger,Bottom,Mismatch,2,21,69,6,o,0.61681235,0,TRIANGLE,CIRCLE,DIAMOND,1,0,65,70,78,1,3,21,22,1
P1,Stranger,Bottom,Mismatch,2,22,70,6,o,0.516826444,0,TRIANGLE,CIRCLE,DIAMOND,1,0,66,71,78,1,3,21,22,1
P2,P2,Bottom,Match,2,23,71,13,w,0.683574503,0,TRIANGLE,CIRCLE,DIAMOND,1,0,67,72,78,1,3,21,22,1
P1,P1,Top,Match,3,0,72,1,w,0.700131109,0,TRIANGLE,CIRCLE,DIAMOND,1,0,68,73,78,1,3,21,22,1
P1,P1,Bottom,Match,3,1,73,5,w,0.616787873,0,TRIANGLE,CIRCLE,DIAMOND,1,0,69,74,78,1,3,21,22,1
Stranger,P2,Top,Mismatch,3,2,74,19,o,1.366762903,0,TRIANGLE,CIRCLE,DIAMOND,1,0,70,75,78,1,3,21,22,1
Stranger,P2,Bottom,Mismatch,3,3,75,23,o,0.566788406,0,TRIANGLE,CIRCLE,DIAMOND,1,0,71,76,78,1,3,21,22,1
P1,P2,Bottom,Mismatch,3,4,76,7,o,0.600134149,0,TRIANGLE,CIRCLE,DIAMOND,1,0,72,77,78,1,3,21,22,1
