Subject,Age,Sex,Arouse.RESP,Valence.RESP,condition,respond3.ACC,respond3.RT,mood,Session
19,19,female,7,4,Self-shape_Matched,1,259,anxious,S1
19,19,female,7,4,Familiar-shape_Matched,1,552,anxious,S1
19,19,female,7,4,Familiar-shape_Matched,1,309,anxious,S1
19,19,female,7,4,Self-shape_Mismatched,1,456,anxious,S1
19,19,female,7,4,Self-shape_Mismatched,1,851,anxious,S1
19,19,female,7,4,Familiar-shape_Matched,1,429,anxious,S1
19,19,female,7,4,Familiar-shape_Mismatched,1,636,anxious,S1
19,19,female,7,4,Stranger-shape_Matched,1,351,anxious,S1
19,19,female,7,4,Familiar-shape_Matched,1,712,anxious,S1
19,19,female,7,4,Self-shape_Matched,1,421,anxious,S1
19,19,female,7,4,Stranger-shape_Mismatched,1,404,anxious,S1
19,19,female,7,4,Stranger-shape_Mismatched,0,458,anxious,S1
19,19,female,7,4,Stranger-shape_Matched,1,419,anxious,S1
19,19,female,7,4,Stranger-shape_Mismatched,0,640,anxious,S1
19,19,female,7,4,Familiar-shape_Mismatched,0,536,anxious,S1
19,19,female,7,4,Self-shape_Mismatched,1,663,anxious,S1
19,19,female,7,4,Stranger-shape_Matched,1,576,anxious,S1
19,19,female,7,4,Stranger-shape_Mismatched,1,552,anxious,S1
19,19,female,7,4,Self-shape_Mismatched,1,625,anxious,S1
19,19,female,7,4,Familiar-shape_Matched,1,783,anxious,S1
19,19,female,7,4,Familiar-shape_Matched,1,612,anxious,S1
19,19,female,7,4,Familiar-shape_Mismatched,1,430,anxious,S1
19,19,female,7,4,Self-shape_Matched,1,411,anxious,S1
19,19,female,7,4,Stranger-shape_Matched,1,337,anxious,S1
19,19,female,7,4,Self-shape_Mismatched,0,513,anxious,S1
19,19,female,7,4,Self-shape_Mismatched,1,510,anxious,S1
19,19,female,7,4,Familiar-shape_Matched,1,413,anxious,S1
19,19,female,7,4,Stranger-shape_Matched,0,455,anxious,S1
19,19,female,7,4,Self-shape_Matched,1,470,anxious,S1
19,19,female,7,4,Familiar-shape_Matched,1,509,anxious,S1
19,19,female,7,4,Familiar-shape_Mismatched,1,905,anxious,S1
19,19,female,7,4,Familiar-shape_Mismatched,1,589,anxious,S1
19,19,female,7,4,Stranger-shape_Matched,1,500,anxious,S1
19,19,female,7,4,Stranger-shape_Mismatched,1,422,anxious,S1
19,19,female,7,4,Self-shape_Matched,1,379,anxious,S1
19,19,female,7,4,Stranger-shape_Matched,1,596,anxious,S1
19,19,female,7,4,Familiar-shape_Mismatched,1,533,anxious,S1
19,19,female,7,4,Familiar-shape_Mismatched,1,457,anxious,S1
19,19,female,7,4,Stranger-shape_Matched,0,499,anxious,S1
19,19,female,7,4,Self-shape_Matched,1,383,anxious,S1
19,19,female,7,4,Familiar-shape_Mismatched,1,550,anxious,S1
19,19,female,7,4,Self-shape_Mismatched,1,542,anxious,S1
19,19,female,7,4,Self-shape_Matched,1,545,anxious,S1
19,19,female,7,4,Self-shape_Matched,1,650,anxious,S1
19,19,female,7,4,Stranger-shape_Mismatched,1,598,anxious,S1
19,19,female,7,4,Self-shape_Mismatched,0,426,anxious,S1
19,19,female,7,4,Self-shape_Matched,1,490,anxious,S1
19,19,female,7,4,Familiar-shape_Matched,1,447,anxious,S1
19,19,female,7,4,Stranger-shape_Matched,1,513,anxious,S1
19,19,female,7,4,Familiar-shape_Mismatched,1,477,anxious,S1
19,19,female,7,4,Stranger-shape_Mismatched,1,553,anxious,S1
19,19,female,7,4,Stranger-shape_Mismatched,1,520,anxious,S1
19,19,female,7,4,Familiar-shape_Matched,1,546,anxious,S1
19,19,female,7,4,Stranger-shape_Matched,1,334,anxious,S1
19,19,female,7,4,Familiar-shape_Matched,1,638,anxious,S1
19,19,female,7,4,Familiar-shape_Mismatched,1,459,anxious,S1
19,19,female,7,4,Stranger-shape_Matched,1,442,anxious,S1
19,19,female,7,4,Self-shape_Matched,1,389,anxious,S1
19,19,female,7,4,Stranger-shape_Mismatched,1,471,anxious,S1
19,19,female,7,4,Self-shape_Matched,0,540,anxious,S1
19,19,female,7,4,Stranger-shape_Mismatched,1,576,anxious,S1
19,19,female,7,4,Self-shape_Matched,1,434,anxious,S1
19,19,female,7,4,Stranger-shape_Mismatched,1,617,anxious,S1
19,19,female,7,4,Stranger-shape_Mismatched,1,532,anxious,S1
19,19,female,7,4,Familiar-shape_Mismatched,1,471,anxious,S1
19,19,female,7,4,Self-shape_Mismatched,1,566,anxious,S1
19,19,female,7,4,Self-shape_Mismatched,1,744,anxious,S1
19,19,female,7,4,Stranger-shape_Matched,1,580,anxious,S1
19,19,female,7,4,Self-shape_Mismatched,1,554,anxious,S1
19,19,female,7,4,Self-shape_Mismatched,1,517,anxious,S1
19,19,female,7,4,Familiar-shape_Mismatched,1,407,anxious,S1
19,19,female,7,4,Familiar-shape_Matched,1,479,anxious,S1
19,19,female,7,4,Self-shape_Matched,1,408,anxious,S1
19,19,female,7,4,Self-shape_Mismatched,1,458,anxious,S1
19,19,female,7,4,Familiar-shape_Mismatched,1,596,anxious,S1
19,19,female,7,4,Self-shape_Mismatched,1,514,anxious,S1
19,19,female,7,4,Self-shape_Mismatched,1,463,anxious,S1
19,19,female,7,4,Familiar-shape_Mismatched,1,557,anxious,S1
19,19,female,7,4,Stranger-shape_Mismatched,0,433,anxious,S1
19,19,female,7,4,Familiar-shape_Matched,0,516,anxious,S1
19,19,female,7,4,Stranger-shape_Matched,1,564,anxious,S1
19,19,female,7,4,Stranger-shape_Mismatched,1,401,anxious,S1
19,19,female,7,4,Self-shape_Mismatched,0,522,anxious,S1
19,19,female,7,4,Stranger-shape_Mismatched,1,596,anxious,S1
19,19,female,7,4,Stranger-shape_Mismatched,1,691,anxious,S1
19,19,female,7,4,Self-shape_Matched,1,597,anxious,S1
19,19,female,7,4,Stranger-shape_Mismatched,1,596,anxious,S1
19,19,female,7,4,Familiar-shape_Mismatched,1,510,anxious,S1
19,19,female,7,4,Self-shape_Matched,1,572,anxious,S1
19,19,female,7,4,Self-shape_Matched,1,500,anxious,S1
19,19,female,7,4,Familiar-shape_Matched,1,433,anxious,S1
19,19,female,7,4,Familiar-shape_Mismatched,1,538,anxious,S1
19,19,female,7,4,Self-shape_Mismatched,1,651,anxious,S1
19,19,female,7,4,Familiar-shape_Mismatched,1,408,anxious,S1
19,19,female,7,4,Familiar-shape_Mismatched,1,444,anxious,S1
19,19,female,7,4,Stranger-shape_Mismatched,1,542,anxious,S1
19,19,female,7,4,Familiar-shape_Mismatched,1,478,anxious,S1
19,19,female,7,4,Self-shape_Matched,1,653,anxious,S1
19,19,female,7,4,Self-shape_Matched,1,410,anxious,S1
19,19,female,7,4,Stranger-shape_Matched,1,373,anxious,S1
19,19,female,7,4,Stranger-shape_Mismatched,0,306,anxious,S1
19,19,female,7,4,Self-shape_Mismatched,1,553,anxious,S1
19,19,female,7,4,Familiar-shape_Matched,1,535,anxious,S1
19,19,female,7,4,Stranger-shape_Matched,0,544,anxious,S1
19,19,female,7,4,Stranger-shape_Matched,1,387,anxious,S1
19,19,female,7,4,Self-shape_Mismatched,1,566,anxious,S1
19,19,female,7,4,Stranger-shape_Matched,1,648,anxious,S1
19,19,female,7,4,Familiar-shape_Matched,1,698,anxious,S1
19,19,female,7,4,Self-shape_Mismatched,1,446,anxious,S1
19,19,female,7,4,Stranger-shape_Matched,1,716,anxious,S1
19,19,female,7,4,Familiar-shape_Matched,0,443,anxious,S1
19,19,female,7,4,Self-shape_Matched,1,752,anxious,S1
19,19,female,7,4,Stranger-shape_Matched,1,422,anxious,S1
19,19,female,7,4,Stranger-shape_Mismatched,1,464,anxious,S1
19,19,female,7,4,Self-shape_Matched,1,489,anxious,S1
19,19,female,7,4,Familiar-shape_Mismatched,0,666,anxious,S1
19,19,female,7,4,Familiar-shape_Mismatched,1,520,anxious,S1
19,19,female,7,4,Stranger-shape_Mismatched,0,627,anxious,S1
19,19,female,7,4,Stranger-shape_Mismatched,1,696,anxious,S1
19,19,female,7,4,Self-shape_Matched,1,526,anxious,S1
19,19,female,7,4,Self-shape_Mismatched,0,559,anxious,S1
19,19,female,7,4,Familiar-shape_Mismatched,0,915,anxious,S1
19,19,female,7,4,Familiar-shape_Matched,1,480,anxious,S1
19,19,female,7,4,Stranger-shape_Mismatched,1,515,anxious,S1
19,19,female,7,4,Familiar-shape_Matched,1,413,anxious,S1
19,19,female,7,4,Self-shape_Mismatched,1,504,anxious,S1
19,19,female,7,4,Self-shape_Matched,1,506,anxious,S1
19,19,female,7,4,Familiar-shape_Matched,1,651,anxious,S1
19,19,female,7,4,Stranger-shape_Matched,1,625,anxious,S1
19,19,female,7,4,Stranger-shape_Matched,1,441,anxious,S1
19,19,female,7,4,Familiar-shape_Matched,1,333,anxious,S1
19,19,female,7,4,Familiar-shape_Mismatched,1,400,anxious,S1
19,19,female,7,4,Familiar-shape_Mismatched,1,395,anxious,S1
19,19,female,7,4,Self-shape_Matched,1,309,anxious,S1
19,19,female,7,4,Stranger-shape_Matched,1,455,anxious,S1
19,19,female,7,4,Familiar-shape_Matched,1,552,anxious,S1
19,19,female,7,4,Stranger-shape_Matched,1,600,anxious,S1
19,19,female,7,4,Self-shape_Mismatched,0,384,anxious,S1
19,19,female,7,4,Self-shape_Matched,1,727,anxious,S1
19,19,female,7,4,Stranger-shape_Matched,1,804,anxious,S1
19,19,female,7,4,Self-shape_Mismatched,0,436,anxious,S1
19,19,female,7,4,Familiar-shape_Matched,1,619,anxious,S1
19,19,female,7,4,Familiar-shape_Matched,1,644,anxious,S1
19,19,female,7,4,Stranger-shape_Mismatched,1,428,anxious,S1
17,19,female,7,3,Self-shape_Mismatched,1,408,anxious,S2
17,19,female,7,3,Familiar-shape_Mismatched,1,375,anxious,S2
17,19,female,7,3,Familiar-shape_Mismatched,1,339,anxious,S2
17,19,female,7,3,Familiar-shape_Mismatched,1,253,anxious,S2
17,19,female,7,3,Familiar-shape_Matched,0,233,anxious,S2
17,19,female,7,3,Familiar-shape_Matched,1,522,anxious,S2
17,19,female,7,3,Stranger-shape_Mismatched,1,479,anxious,S2
17,19,female,7,3,Familiar-shape_Mismatched,1,482,anxious,S2
17,19,female,7,3,Stranger-shape_Matched,0,520,anxious,S2
17,19,female,7,3,Stranger-shape_Matched,1,551,anxious,S2
17,19,female,7,3,Stranger-shape_Matched,1,464,anxious,S2
17,19,female,7,3,Familiar-shape_Matched,1,527,anxious,S2
17,19,female,7,3,Familiar-shape_Matched,0,426,anxious,S2
17,19,female,7,3,Self-shape_Mismatched,1,741,anxious,S2
17,19,female,7,3,Self-shape_Matched,1,452,anxious,S2
17,19,female,7,3,Familiar-shape_Matched,0,355,anxious,S2
17,19,female,7,3,Self-shape_Mismatched,1,644,anxious,S2
17,19,female,7,3,Familiar-shape_Matched,1,548,anxious,S2
17,19,female,7,3,Self-shape_Mismatched,1,471,anxious,S2
17,19,female,7,3,Stranger-shape_Matched,0,420,anxious,S2
17,19,female,7,3,Stranger-shape_Matched,1,411,anxious,S2
17,19,female,7,3,Stranger-shape_Mismatched,1,437,anxious,S2
17,19,female,7,3,Familiar-shape_Matched,1,566,anxious,S2
17,19,female,7,3,Stranger-shape_Mismatched,1,418,anxious,S2
17,19,female,7,3,Familiar-shape_Mismatched,1,557,anxious,S2
17,19,female,7,3,Stranger-shape_Mismatched,1,569,anxious,S2
17,19,female,7,3,Familiar-shape_Matched,1,411,anxious,S2
17,19,female,7,3,Self-shape_Matched,1,433,anxious,S2
17,19,female,7,3,Self-shape_Matched,1,279,anxious,S2
17,19,female,7,3,Self-shape_Mismatched,1,339,anxious,S2
17,19,female,7,3,Self-shape_Matched,1,366,anxious,S2
17,19,female,7,3,Stranger-shape_Mismatched,1,414,anxious,S2
17,19,female,7,3,Self-shape_Mismatched,1,557,anxious,S2
17,19,female,7,3,Familiar-shape_Mismatched,1,429,anxious,S2
17,19,female,7,3,Stranger-shape_Mismatched,1,408,anxious,S2
17,19,female,7,3,Self-shape_Mismatched,1,471,anxious,S2
17,19,female,7,3,Stranger-shape_Mismatched,1,486,anxious,S2
17,19,female,7,3,Stranger-shape_Mismatched,1,271,anxious,S2
17,19,female,7,3,Familiar-shape_Matched,1,464,anxious,S2
17,19,female,7,3,Self-shape_Matched,1,361,anxious,S2
17,19,female,7,3,Stranger-shape_Mismatched,1,360,anxious,S2
17,19,female,7,3,Familiar-shape_Matched,1,444,anxious,S2
17,19,female,7,3,Stranger-shape_Mismatched,1,370,anxious,S2
17,19,female,7,3,Self-shape_Matched,1,305,anxious,S2
17,19,female,7,3,Familiar-shape_Mismatched,1,362,anxious,S2
17,19,female,7,3,Stranger-shape_Mismatched,1,452,anxious,S2
17,19,female,7,3,Stranger-shape_Matched,0,256,anxious,S2
17,19,female,7,3,Familiar-shape_Matched,0,480,anxious,S2
17,19,female,7,3,Familiar-shape_Matched,1,409,anxious,S2
17,19,female,7,3,Self-shape_Mismatched,1,471,anxious,S2
17,19,female,7,3,Stranger-shape_Matched,1,460,anxious,S2
17,19,female,7,3,Stranger-shape_Matched,1,275,anxious,S2
17,19,female,7,3,Self-shape_Matched,1,409,anxious,S2
17,19,female,7,3,Self-shape_Matched,1,222,anxious,S2
17,19,female,7,3,Familiar-shape_Mismatched,1,447,anxious,S2
17,19,female,7,3,Self-shape_Matched,1,255,anxious,S2
17,19,female,7,3,Self-shape_Matched,1,229,anxious,S2
17,19,female,7,3,Self-shape_Matched,1,225,anxious,S2
17,19,female,7,3,Stranger-shape_Matched,0,387,anxious,S2
17,19,female,7,3,Familiar-shape_Mismatched,1,368,anxious,S2
17,19,female,7,3,Stranger-shape_Matched,0,431,anxious,S2
17,19,female,7,3,Self-shape_Mismatched,0,387,anxious,S2
17,19,female,7,3,Familiar-shape_Mismatched,1,522,anxious,S2
17,19,female,7,3,Stranger-shape_Mismatched,1,402,anxious,S2
17,19,female,7,3,Stranger-shape_Matched,1,495,anxious,S2
17,19,female,7,3,Stranger-shape_Matched,1,360,anxious,S2
17,19,female,7,3,Self-shape_Mismatched,1,444,anxious,S2
17,19,female,7,3,Familiar-shape_Mismatched,1,496,anxious,S2
17,19,female,7,3,Self-shape_Matched,1,379,anxious,S2
17,19,female,7,3,Self-shape_Mismatched,1,419,anxious,S2
17,19,female,7,3,Familiar-shape_Mismatched,1,657,anxious,S2
17,19,female,7,3,Self-shape_Mismatched,1,502,anxious,S2
17,19,female,7,3,Self-shape_Mismatched,1,477,anxious,S2
17,19,female,7,3,Familiar-shape_Matched,1,488,anxious,S2
17,19,female,7,3,Self-shape_Mismatched,1,464,anxious,S2
17,19,female,7,3,Stranger-shape_Matched,1,464,anxious,S2
17,19,female,7,3,Self-shape_Matched,1,332,anxious,S2
17,19,female,7,3,Familiar-shape_Matched,1,461,anxious,S2
17,19,female,7,3,Stranger-shape_Mismatched,1,490,anxious,S2
17,19,female,7,3,Self-shape_Matched,1,359,anxious,S2
17,19,female,7,3,Stranger-shape_Mismatched,1,483,anxious,S2
17,19,female,7,3,Familiar-shape_Mismatched,0,580,anxious,S2
17,19,female,7,3,Stranger-shape_Matched,0,382,anxious,S2
17,19,female,7,3,Self-shape_Mismatched,1,492,anxious,S2
17,19,female,7,3,Familiar-shape_Matched,1,461,anxious,S2
17,19,female,7,3,Self-shape_Mismatched,1,356,anxious,S2
17,19,female,7,3,Self-shape_Mismatched,1,499,anxious,S2
17,19,female,7,3,Familiar-shape_Matched,1,421,anxious,S2
17,19,female,7,3,Familiar-shape_Mismatched,1,464,anxious,S2
17,19,female,7,3,Familiar-shape_Mismatched,1,266,anxious,S2
17,19,female,7,3,Self-shape_Mismatched,1,403,anxious,S2
17,19,female,7,3,Self-shape_Matched,1,400,anxious,S2
17,19,female,7,3,Familiar-shape_Matched,1,544,anxious,S2
17,19,female,7,3,Familiar-shape_Mismatched,1,572,anxious,S2
17,19,female,7,3,Familiar-shape_Mismatched,0,432,anxious,S2
17,19,female,7,3,Stranger-shape_Matched,0,296,anxious,S2
17,19,female,7,3,Stranger-shape_Matched,1,673,anxious,S2
17,19,female,7,3,Familiar-shape_Matched,1,440,anxious,S2
17,19,female,7,3,Stranger-shape_Matched,1,417,anxious,S2
17,19,female,7,3,Familiar-shape_Mismatched,0,266,anxious,S2
17,19,female,7,3,Self-shape_Mismatched,1,429,anxious,S2
17,19,female,7,3,Self-shape_Mismatched,0,413,anxious,S2
17,19,female,7,3,Stranger-shape_Matched,0,540,anxious,S2
17,19,female,7,3,Stranger-shape_Matched,1,434,anxious,S2
17,19,female,7,3,Self-shape_Mismatched,1,438,anxious,S2
17,19,female,7,3,Familiar-shape_Matched,1,397,anxious,S2
17,19,female,7,3,Familiar-shape_Mismatched,1,464,anxious,S2
17,19,female,7,3,Stranger-shape_Matched,0,450,anxious,S2
17,19,female,7,3,Stranger-shape_Mismatched,1,481,anxious,S2
17,19,female,7,3,Stranger-shape_Matched,1,469,anxious,S2
17,19,female,7,3,Stranger-shape_Mismatched,1,447,anxious,S2
17,19,female,7,3,Self-shape_Matched,1,349,anxious,S2
17,19,female,7,3,Self-shape_Matched,1,301,anxious,S2
17,19,female,7,3,Stranger-shape_Matched,0,380,anxious,S2
17,19,female,7,3,Self-shape_Matched,1,464,anxious,S2
17,19,female,7,3,Self-shape_Matched,1,376,anxious,S2
17,19,female,7,3,Self-shape_Matched,1,230,anxious,S2
17,19,female,7,3,Stranger-shape_Matched,1,383,anxious,S2
17,19,female,7,3,Stranger-shape_Mismatched,0,250,anxious,S2
17,19,female,7,3,Self-shape_Matched,1,327,anxious,S2
17,19,female,7,3,Stranger-shape_Mismatched,1,447,anxious,S2
17,19,female,7,3,Stranger-shape_Matched,0,313,anxious,S2
17,19,female,7,3,Familiar-shape_Mismatched,1,537,anxious,S2
17,19,female,7,3,Familiar-shape_Matched,1,430,anxious,S2
17,19,female,7,3,Self-shape_Matched,1,357,anxious,S2
17,19,female,7,3,Familiar-shape_Matched,1,503,anxious,S2
17,19,female,7,3,Stranger-shape_Mismatched,1,488,anxious,S2
17,19,female,7,3,Familiar-shape_Matched,1,342,anxious,S2
17,19,female,7,3,Self-shape_Mismatched,1,598,anxious,S2
17,19,female,7,3,Familiar-shape_Matched,1,453,anxious,S2
17,19,female,7,3,Familiar-shape_Mismatched,1,433,anxious,S2
17,19,female,7,3,Stranger-shape_Mismatched,0,517,anxious,S2
17,19,female,7,3,Familiar-shape_Mismatched,1,545,anxious,S2
17,19,female,7,3,Familiar-shape_Mismatched,1,404,anxious,S2
17,19,female,7,3,Familiar-shape_Mismatched,1,346,anxious,S2
17,19,female,7,3,Stranger-shape_Mismatched,1,467,anxious,S2
17,19,female,7,3,Stranger-shape_Mismatched,1,364,anxious,S2
17,19,female,7,3,Self-shape_Mismatched,1,482,anxious,S2
17,19,female,7,3,Stranger-shape_Mismatched,1,392,anxious,S2
17,19,female,7,3,Self-shape_Matched,1,434,anxious,S2
17,19,female,7,3,Self-shape_Mismatched,1,387,anxious,S2
17,19,female,7,3,Familiar-shape_Matched,1,430,anxious,S2
17,19,female,7,3,Self-shape_Matched,0,389,anxious,S2
17,19,female,7,3,Stranger-shape_Mismatched,1,506,anxious,S2
20,18,female,5,5,Self-shape_Mismatched,1,652,anxious,S2
20,18,female,5,5,Self-shape_Matched,1,547,anxious,S2
20,18,female,5,5,Stranger-shape_Matched,1,554,anxious,S2
20,18,female,5,5,Familiar-shape_Mismatched,1,716,anxious,S2
20,18,female,5,5,Stranger-shape_Mismatched,1,578,anxious,S2
20,18,female,5,5,Stranger-shape_Matched,1,726,anxious,S2
20,18,female,5,5,Familiar-shape_Matched,1,716,anxious,S2
20,18,female,5,5,Self-shape_Mismatched,1,912,anxious,S2
20,18,female,5,5,Self-shape_Matched,1,576,anxious,S2
20,18,female,5,5,Stranger-shape_Matched,1,837,anxious,S2
20,18,female,5,5,Self-shape_Matched,1,855,anxious,S2
20,18,female,5,5,Self-shape_Matched,1,565,anxious,S2
20,18,female,5,5,Familiar-shape_Mismatched,1,624,anxious,S2
20,18,female,5,5,Familiar-shape_Mismatched,1,531,anxious,S2
20,18,female,5,5,Familiar-shape_Matched,1,559,anxious,S2
20,18,female,5,5,Familiar-shape_Mismatched,1,829,anxious,S2
20,18,female,5,5,Stranger-shape_Matched,1,660,anxious,S2
20,18,female,5,5,Self-shape_Matched,1,518,anxious,S2
20,18,female,5,5,Familiar-shape_Matched,1,517,anxious,S2
20,18,female,5,5,Stranger-shape_Matched,1,532,anxious,S2
20,18,female,5,5,Self-shape_Matched,1,467,anxious,S2
20,18,female,5,5,Self-shape_Mismatched,1,682,anxious,S2
20,18,female,5,5,Self-shape_Mismatched,1,522,anxious,S2
20,18,female,5,5,Familiar-shape_Mismatched,1,709,anxious,S2
20,18,female,5,5,Stranger-shape_Matched,1,922,anxious,S2
20,18,female,5,5,Stranger-shape_Mismatched,1,639,anxious,S2
20,18,female,5,5,Familiar-shape_Matched,1,698,anxious,S2
20,18,female,5,5,Familiar-shape_Mismatched,1,496,anxious,S2
20,18,female,5,5,Stranger-shape_Matched,1,756,anxious,S2
20,18,female,5,5,Stranger-shape_Matched,1,519,anxious,S2
20,18,female,5,5,Stranger-shape_Mismatched,1,633,anxious,S2
20,18,female,5,5,Familiar-shape_Matched,1,598,anxious,S2
20,18,female,5,5,Stranger-shape_Matched,1,632,anxious,S2
20,18,female,5,5,Familiar-shape_Matched,1,706,anxious,S2
20,18,female,5,5,Stranger-shape_Mismatched,1,559,anxious,S2
20,18,female,5,5,Familiar-shape_Matched,1,459,anxious,S2
20,18,female,5,5,Familiar-shape_Matched,1,668,anxious,S2
20,18,female,5,5,Familiar-shape_Matched,1,378,anxious,S2
20,18,female,5,5,Self-shape_Mismatched,1,576,anxious,S2
20,18,female,5,5,Self-shape_Mismatched,0,650,anxious,S2
20,18,female,5,5,Stranger-shape_Mismatched,1,894,anxious,S2
20,18,female,5,5,Familiar-shape_Mismatched,1,542,anxious,S2
20,18,female,5,5,Stranger-shape_Mismatched,1,650,anxious,S2
20,18,female,5,5,Self-shape_Matched,1,458,anxious,S2
20,18,female,5,5,Stranger-shape_Mismatched,1,435,anxious,S2
20,18,female,5,5,Stranger-shape_Matched,1,798,anxious,S2
20,18,female,5,5,Self-shape_Matched,0,616,anxious,S2
20,18,female,5,5,Self-shape_Matched,1,524,anxious,S2
20,18,female,5,5,Familiar-shape_Mismatched,1,427,anxious,S2
20,18,female,5,5,Stranger-shape_Mismatched,1,625,anxious,S2
20,18,female,5,5,Self-shape_Matched,1,474,anxious,S2
20,18,female,5,5,Stranger-shape_Matched,0,674,anxious,S2
20,18,female,5,5,Stranger-shape_Matched,0,604,anxious,S2
20,18,female,5,5,Self-shape_Mismatched,1,697,anxious,S2
20,18,female,5,5,Stranger-shape_Mismatched,1,682,anxious,S2
20,18,female,5,5,Stranger-shape_Mismatched,1,644,anxious,S2
20,18,female,5,5,Familiar-shape_Mismatched,1,607,anxious,S2
20,18,female,5,5,Self-shape_Matched,1,494,anxious,S2
20,18,female,5,5,Self-shape_Mismatched,1,591,anxious,S2
20,18,female,5,5,Familiar-shape_Matched,1,576,anxious,S2
20,18,female,5,5,Self-shape_Mismatched,1,569,anxious,S2
20,18,female,5,5,Self-shape_Mismatched,1,651,anxious,S2
20,18,female,5,5,Familiar-shape_Matched,1,557,anxious,S2
20,18,female,5,5,Stranger-shape_Mismatched,1,627,anxious,S2
20,18,female,5,5,Familiar-shape_Mismatched,1,581,anxious,S2
20,18,female,5,5,Self-shape_Matched,1,587,anxious,S2
20,18,female,5,5,Stranger-shape_Mismatched,1,601,anxious,S2
20,18,female,5,5,Self-shape_Mismatched,1,605,anxious,S2
20,18,female,5,5,Familiar-shape_Matched,1,515,anxious,S2
20,18,female,5,5,Self-shape_Mismatched,1,720,anxious,S2
20,18,female,5,5,Familiar-shape_Matched,1,711,anxious,S2
20,18,female,5,5,Stranger-shape_Matched,1,704,anxious,S2
20,18,female,5,5,Stranger-shape_Mismatched,1,638,anxious,S2
20,18,female,5,5,Self-shape_Matched,1,660,anxious,S2
20,18,female,5,5,Stranger-shape_Mismatched,1,464,anxious,S2
20,18,female,5,5,Stranger-shape_Matched,0,547,anxious,S2
20,18,female,5,5,Familiar-shape_Mismatched,1,468,anxious,S2
20,18,female,5,5,Familiar-shape_Matched,1,599,anxious,S2
20,18,female,5,5,Self-shape_Matched,1,490,anxious,S2
20,18,female,5,5,Stranger-shape_Mismatched,1,636,anxious,S2
20,18,female,5,5,Self-shape_Matched,1,538,anxious,S2
20,18,female,5,5,Self-shape_Matched,1,425,anxious,S2
20,18,female,5,5,Familiar-shape_Matched,1,550,anxious,S2
20,18,female,5,5,Stranger-shape_Mismatched,0,505,anxious,S2
20,18,female,5,5,Self-shape_Mismatched,1,716,anxious,S2
20,18,female,5,5,Stranger-shape_Matched,1,585,anxious,S2
20,18,female,5,5,Familiar-shape_Mismatched,1,995,anxious,S2
20,18,female,5,5,Self-shape_Matched,1,477,anxious,S2
20,18,female,5,5,Familiar-shape_Matched,1,516,anxious,S2
20,18,female,5,5,Familiar-shape_Mismatched,1,721,anxious,S2
20,18,female,5,5,Familiar-shape_Matched,1,451,anxious,S2
20,18,female,5,5,Stranger-shape_Mismatched,0,491,anxious,S2
20,18,female,5,5,Self-shape_Mismatched,1,605,anxious,S2
20,18,female,5,5,Stranger-shape_Matched,1,645,anxious,S2
20,18,female,5,5,Stranger-shape_Matched,1,488,anxious,S2
20,18,female,5,5,Familiar-shape_Mismatched,1,517,anxious,S2
20,18,female,5,5,Self-shape_Matched,1,627,anxious,S2
20,18,female,5,5,Familiar-shape_Mismatched,1,596,anxious,S2
20,18,female,5,5,Self-shape_Matched,1,484,anxious,S2
20,18,female,5,5,Familiar-shape_Matched,1,593,anxious,S2
20,18,female,5,5,Familiar-shape_Mismatched,1,629,anxious,S2
20,18,female,5,5,Self-shape_Mismatched,1,719,anxious,S2
20,18,female,5,5,Familiar-shape_Matched,1,489,anxious,S2
20,18,female,5,5,Self-shape_Matched,1,567,anxious,S2
20,18,female,5,5,Stranger-shape_Mismatched,1,836,anxious,S2
20,18,female,5,5,Stranger-shape_Matched,1,916,anxious,S2
20,18,female,5,5,Stranger-shape_Matched,1,486,anxious,S2
20,18,female,5,5,Familiar-shape_Matched,0,467,anxious,S2
20,18,female,5,5,Self-shape_Mismatched,1,704,anxious,S2
20,18,female,5,5,Stranger-shape_Matched,1,631,anxious,S2
20,18,female,5,5,Familiar-shape_Mismatched,1,748,anxious,S2
20,18,female,5,5,Familiar-shape_Mismatched,1,559,anxious,S2
20,18,female,5,5,Familiar-shape_Matched,1,514,anxious,S2
20,18,female,5,5,Familiar-shape_Matched,1,591,anxious,S2
20,18,female,5,5,Stranger-shape_Mismatched,1,872,anxious,S2
20,18,female,5,5,Self-shape_Mismatched,1,603,anxious,S2
20,18,female,5,5,Self-shape_Mismatched,1,546,anxious,S2
20,18,female,5,5,Self-shape_Matched,1,591,anxious,S2
20,18,female,5,5,Self-shape_Mismatched,1,579,anxious,S2
20,18,female,5,5,Stranger-shape_Matched,1,521,anxious,S2
20,18,female,5,5,Self-shape_Matched,1,524,anxious,S2
20,18,female,5,5,Stranger-shape_Mismatched,1,913,anxious,S2
20,18,female,5,5,Self-shape_Mismatched,0,821,anxious,S2
20,18,female,5,5,Stranger-shape_Mismatched,1,811,anxious,S2
20,18,female,5,5,Stranger-shape_Mismatched,1,708,anxious,S2
20,18,female,5,5,Familiar-shape_Mismatched,1,719,anxious,S2
20,18,female,5,5,Familiar-shape_Mismatched,1,530,anxious,S2
20,18,female,5,5,Self-shape_Matched,1,459,anxious,S2
20,18,female,5,5,Familiar-shape_Mismatched,1,503,anxious,S2
20,18,female,5,5,Self-shape_Mismatched,1,641,anxious,S2
20,18,female,5,5,Stranger-shape_Matched,0,417,anxious,S2
20,18,female,5,5,Familiar-shape_Matched,1,595,anxious,S2
20,18,female,5,5,Self-shape_Mismatched,1,528,anxious,S2
20,18,female,5,5,Self-shape_Mismatched,1,641,anxious,S2
20,18,female,5,5,Self-shape_Matched,1,517,anxious,S2
20,18,female,5,5,Stranger-shape_Mismatched,1,531,anxious,S2
20,18,female,5,5,Stranger-shape_Mismatched,1,558,anxious,S2
20,18,female,5,5,Familiar-shape_Mismatched,1,532,anxious,S2
20,18,female,5,5,Familiar-shape_Matched,1,563,anxious,S2
20,18,female,5,5,Self-shape_Mismatched,1,469,anxious,S2
20,18,female,5,5,Stranger-shape_Matched,1,515,anxious,S2
22,20,female,6,5,Self-shape_Mismatched,1,867,anxious,S1
22,20,female,6,5,Familiar-shape_Mismatched,1,816,anxious,S1
22,20,female,6,5,Familiar-shape_Mismatched,1,730,anxious,S1
22,20,female,6,5,Self-shape_Mismatched,1,555,anxious,S1
22,20,female,6,5,Self-shape_Mismatched,1,542,anxious,S1
22,20,female,6,5,Self-shape_Matched,1,548,anxious,S1
22,20,female,6,5,Self-shape_Mismatched,1,674,anxious,S1
22,20,female,6,5,Familiar-shape_Matched,1,517,anxious,S1
22,20,female,6,5,Self-shape_Matched,1,724,anxious,S1
22,20,female,6,5,Self-shape_Matched,1,591,anxious,S1
22,20,female,6,5,Stranger-shape_Mismatched,1,641,anxious,S1
22,20,female,6,5,Stranger-shape_Mismatched,0,690,anxious,S1
22,20,female,6,5,Familiar-shape_Mismatched,1,815,anxious,S1
22,20,female,6,5,Stranger-shape_Matched,1,946,anxious,S1
22,20,female,6,5,Familiar-shape_Mismatched,1,602,anxious,S1
22,20,female,6,5,Self-shape_Matched,1,513,anxious,S1
22,20,female,6,5,Familiar-shape_Matched,0,529,anxious,S1
22,20,female,6,5,Stranger-shape_Matched,1,708,anxious,S1
22,20,female,6,5,Familiar-shape_Matched,1,490,anxious,S1
22,20,female,6,5,Self-shape_Matched,1,473,anxious,S1
22,20,female,6,5,Familiar-shape_Matched,1,411,anxious,S1
22,20,female,6,5,Self-shape_Matched,1,507,anxious,S1
22,20,female,6,5,Stranger-shape_Matched,1,529,anxious,S1
22,20,female,6,5,Familiar-shape_Mismatched,1,596,anxious,S1
22,20,female,6,5,Self-shape_Matched,1,475,anxious,S1
22,20,female,6,5,Familiar-shape_Matched,1,610,anxious,S1
22,20,female,6,5,Familiar-shape_Matched,1,643,anxious,S1
22,20,female,6,5,Stranger-shape_Matched,1,590,anxious,S1
22,20,female,6,5,Familiar-shape_Mismatched,1,601,anxious,S1
22,20,female,6,5,Familiar-shape_Matched,1,567,anxious,S1
22,20,female,6,5,Stranger-shape_Mismatched,1,666,anxious,S1
22,20,female,6,5,Self-shape_Matched,1,429,anxious,S1
22,20,female,6,5,Familiar-shape_Mismatched,1,509,anxious,S1
22,20,female,6,5,Self-shape_Matched,1,549,anxious,S1
22,20,female,6,5,Stranger-shape_Mismatched,1,700,anxious,S1
22,20,female,6,5,Stranger-shape_Matched,1,567,anxious,S1
22,20,female,6,5,Familiar-shape_Mismatched,1,551,anxious,S1
22,20,female,6,5,Self-shape_Mismatched,0,784,anxious,S1
22,20,female,6,5,Stranger-shape_Matched,1,694,anxious,S1
22,20,female,6,5,Self-shape_Mismatched,1,834,anxious,S1
22,20,female,6,5,Stranger-shape_Matched,1,534,anxious,S1
22,20,female,6,5,Familiar-shape_Mismatched,1,566,anxious,S1
22,20,female,6,5,Self-shape_Matched,1,415,anxious,S1
22,20,female,6,5,Stranger-shape_Mismatched,1,612,anxious,S1
22,20,female,6,5,Familiar-shape_Matched,1,391,anxious,S1
22,20,female,6,5,Stranger-shape_Matched,1,624,anxious,S1
22,20,female,6,5,Stranger-shape_Matched,1,735,anxious,S1
22,20,female,6,5,Stranger-shape_Matched,1,446,anxious,S1
22,20,female,6,5,Stranger-shape_Mismatched,1,603,anxious,S1
22,20,female,6,5,Familiar-shape_Matched,1,459,anxious,S1
22,20,female,6,5,Self-shape_Mismatched,1,578,anxious,S1
22,20,female,6,5,Stranger-shape_Matched,1,508,anxious,S1
22,20,female,6,5,Self-shape_Mismatched,1,948,anxious,S1
22,20,female,6,5,Stranger-shape_Mismatched,1,649,anxious,S1
22,20,female,6,5,Stranger-shape_Mismatched,1,564,anxious,S1
22,20,female,6,5,Stranger-shape_Matched,1,648,anxious,S1
22,20,female,6,5,Self-shape_Mismatched,1,722,anxious,S1
22,20,female,6,5,Familiar-shape_Mismatched,1,733,anxious,S1
22,20,female,6,5,Stranger-shape_Mismatched,1,712,anxious,S1
22,20,female,6,5,Self-shape_Mismatched,1,497,anxious,S1
22,20,female,6,5,Familiar-shape_Mismatched,1,571,anxious,S1
22,20,female,6,5,Self-shape_Mismatched,1,529,anxious,S1
22,20,female,6,5,Familiar-shape_Mismatched,1,557,anxious,S1
22,20,female,6,5,Stranger-shape_Mismatched,1,697,anxious,S1
22,20,female,6,5,Stranger-shape_Mismatched,1,523,anxious,S1
22,20,female,6,5,Familiar-shape_Matched,1,583,anxious,S1
22,20,female,6,5,Self-shape_Mismatched,1,591,anxious,S1
22,20,female,6,5,Stranger-shape_Mismatched,1,783,anxious,S1
22,20,female,6,5,Self-shape_Matched,1,455,anxious,S1
22,20,female,6,5,Self-shape_Matched,0,510,anxious,S1
22,20,female,6,5,Familiar-shape_Matched,1,611,anxious,S1
22,20,female,6,5,Self-shape_Matched,1,567,anxious,S1
22,20,female,6,5,Stranger-shape_Matched,1,709,anxious,S1
22,20,female,6,5,Stranger-shape_Mismatched,1,651,anxious,S1
22,20,female,6,5,Stranger-shape_Mismatched,1,755,anxious,S1
22,20,female,6,5,Stranger-shape_Matched,1,630,anxious,S1
22,20,female,6,5,Familiar-shape_Mismatched,1,542,anxious,S1
22,20,female,6,5,Self-shape_Mismatched,1,755,anxious,S1
22,20,female,6,5,Self-shape_Mismatched,1,597,anxious,S1
22,20,female,6,5,Self-shape_Mismatched,1,496,anxious,S1
22,20,female,6,5,Stranger-shape_Mismatched,1,496,anxious,S1
22,20,female,6,5,Self-shape_Matched,1,505,anxious,S1
22,20,female,6,5,Stranger-shape_Matched,0,505,anxious,S1
22,20,female,6,5,Familiar-shape_Matched,1,645,anxious,S1
22,20,female,6,5,Familiar-shape_Matched,1,669,anxious,S1
22,20,female,6,5,Stranger-shape_Matched,1,656,anxious,S1
22,20,female,6,5,Stranger-shape_Matched,1,554,anxious,S1
22,20,female,6,5,Familiar-shape_Matched,1,551,anxious,S1
22,20,female,6,5,Stranger-shape_Mismatched,1,710,anxious,S1
22,20,female,6,5,Familiar-shape_Mismatched,1,790,anxious,S1
22,20,female,6,5,Stranger-shape_Matched,1,630,anxious,S1
22,20,female,6,5,Stranger-shape_Mismatched,1,643,anxious,S1
22,20,female,6,5,Self-shape_Matched,1,492,anxious,S1
22,20,female,6,5,Familiar-shape_Mismatched,1,662,anxious,S1
22,20,female,6,5,Self-shape_Matched,1,432,anxious,S1
22,20,female,6,5,Self-shape_Mismatched,1,880,anxious,S1
22,20,female,6,5,Familiar-shape_Mismatched,1,665,anxious,S1
22,20,female,6,5,Familiar-shape_Matched,0,659,anxious,S1
22,20,female,6,5,Self-shape_Mismatched,1,774,anxious,S1
22,20,female,6,5,Stranger-shape_Matched,1,566,anxious,S1
22,20,female,6,5,Familiar-shape_Mismatched,1,528,anxious,S1
22,20,female,6,5,Familiar-shape_Matched,1,354,anxious,S1
22,20,female,6,5,Familiar-shape_Matched,1,379,anxious,S1
22,20,female,6,5,Stranger-shape_Matched,1,630,anxious,S1
22,20,female,6,5,Familiar-shape_Mismatched,1,724,anxious,S1
22,20,female,6,5,Stranger-shape_Mismatched,1,665,anxious,S1
22,20,female,6,5,Self-shape_Matched,1,388,anxious,S1
22,20,female,6,5,Self-shape_Matched,1,787,anxious,S1
22,20,female,6,5,Self-shape_Matched,1,408,anxious,S1
22,20,female,6,5,Self-shape_Mismatched,1,456,anxious,S1
22,20,female,6,5,Familiar-shape_Mismatched,1,532,anxious,S1
22,20,female,6,5,Familiar-shape_Mismatched,1,447,anxious,S1
22,20,female,6,5,Self-shape_Mismatched,1,563,anxious,S1
22,20,female,6,5,Stranger-shape_Matched,0,878,anxious,S1
22,20,female,6,5,Self-shape_Matched,1,452,anxious,S1
22,20,female,6,5,Stranger-shape_Mismatched,1,661,anxious,S1
22,20,female,6,5,Stranger-shape_Mismatched,1,708,anxious,S1
22,20,female,6,5,Self-shape_Mismatched,1,703,anxious,S1
22,20,female,6,5,Stranger-shape_Matched,1,639,anxious,S1
22,20,female,6,5,Familiar-shape_Matched,1,490,anxious,S1
22,20,female,6,5,Familiar-shape_Mismatched,1,536,anxious,S1
22,20,female,6,5,Familiar-shape_Matched,1,499,anxious,S1
22,20,female,6,5,Self-shape_Mismatched,1,675,anxious,S1
22,20,female,6,5,Stranger-shape_Matched,1,743,anxious,S1
22,20,female,6,5,Self-shape_Matched,1,679,anxious,S1
22,20,female,6,5,Stranger-shape_Matched,1,688,anxious,S1
22,20,female,6,5,Familiar-shape_Mismatched,1,684,anxious,S1
22,20,female,6,5,Familiar-shape_Matched,1,497,anxious,S1
22,20,female,6,5,Familiar-shape_Mismatched,1,523,anxious,S1
22,20,female,6,5,Self-shape_Mismatched,1,741,anxious,S1
22,20,female,6,5,Self-shape_Matched,1,779,anxious,S1
22,20,female,6,5,Familiar-shape_Matched,1,523,anxious,S1
22,20,female,6,5,Self-shape_Matched,1,609,anxious,S1
22,20,female,6,5,Familiar-shape_Matched,1,425,anxious,S1
22,20,female,6,5,Stranger-shape_Mismatched,1,515,anxious,S1
22,20,female,6,5,Self-shape_Mismatched,1,748,anxious,S1
22,20,female,6,5,Familiar-shape_Mismatched,1,549,anxious,S1
22,20,female,6,5,Self-shape_Matched,1,480,anxious,S1
22,20,female,6,5,Stranger-shape_Mismatched,1,556,anxious,S1
22,20,female,6,5,Familiar-shape_Matched,1,469,anxious,S1
22,20,female,6,5,Stranger-shape_Mismatched,1,564,anxious,S1
22,20,female,6,5,Self-shape_Mismatched,1,956,anxious,S1
22,20,female,6,5,Stranger-shape_Mismatched,1,738,anxious,S1
24,19,female,5,6,Self-shape_Mismatched,1,663,anxious,S2
24,19,female,5,6,Stranger-shape_Mismatched,1,544,anxious,S2
24,19,female,5,6,Familiar-shape_Mismatched,0,722,anxious,S2
24,19,female,5,6,Self-shape_Mismatched,1,666,anxious,S2
24,19,female,5,6,Self-shape_Matched,1,339,anxious,S2
24,19,female,5,6,Self-shape_Matched,1,338,anxious,S2
24,19,female,5,6,Familiar-shape_Mismatched,1,461,anxious,S2
24,19,female,5,6,Familiar-shape_Mismatched,1,504,anxious,S2
24,19,female,5,6,Familiar-shape_Mismatched,1,434,anxious,S2
24,19,female,5,6,Familiar-shape_Matched,1,407,anxious,S2
24,19,female,5,6,Self-shape_Matched,1,466,anxious,S2
24,19,female,5,6,Self-shape_Matched,1,306,anxious,S2
24,19,female,5,6,Stranger-shape_Mismatched,1,826,anxious,S2
24,19,female,5,6,Self-shape_Mismatched,1,558,anxious,S2
24,19,female,5,6,Familiar-shape_Matched,1,482,anxious,S2
24,19,female,5,6,Stranger-shape_Matched,0,768,anxious,S2
24,19,female,5,6,Stranger-shape_Matched,0,498,anxious,S2
24,19,female,5,6,Familiar-shape_Matched,0,480,anxious,S2
24,19,female,5,6,Self-shape_Matched,1,406,anxious,S2
24,19,female,5,6,Stranger-shape_Mismatched,1,518,anxious,S2
24,19,female,5,6,Familiar-shape_Matched,1,560,anxious,S2
24,19,female,5,6,Stranger-shape_Matched,0,504,anxious,S2
24,19,female,5,6,Stranger-shape_Matched,1,339,anxious,S2
24,19,female,5,6,Familiar-shape_Matched,1,573,anxious,S2
24,19,female,5,6,Familiar-shape_Mismatched,1,485,anxious,S2
24,19,female,5,6,Stranger-shape_Mismatched,1,535,anxious,S2
24,19,female,5,6,Familiar-shape_Mismatched,1,620,anxious,S2
24,19,female,5,6,Stranger-shape_Mismatched,0,794,anxious,S2
24,19,female,5,6,Self-shape_Mismatched,1,798,anxious,S2
24,19,female,5,6,Self-shape_Matched,1,542,anxious,S2
24,19,female,5,6,Self-shape_Mismatched,1,668,anxious,S2
24,19,female,5,6,Familiar-shape_Matched,1,697,anxious,S2
24,19,female,5,6,Self-shape_Mismatched,1,684,anxious,S2
24,19,female,5,6,Stranger-shape_Matched,1,814,anxious,S2
24,19,female,5,6,Stranger-shape_Matched,1,538,anxious,S2
24,19,female,5,6,Self-shape_Matched,1,402,anxious,S2
24,19,female,5,6,Familiar-shape_Matched,1,390,anxious,S2
24,19,female,5,6,Stranger-shape_Matched,1,551,anxious,S2
24,19,female,5,6,Self-shape_Matched,1,421,anxious,S2
24,19,female,5,6,Stranger-shape_Mismatched,0,355,anxious,S2
24,19,female,5,6,Self-shape_Matched,1,523,anxious,S2
24,19,female,5,6,Stranger-shape_Mismatched,1,617,anxious,S2
24,19,female,5,6,Stranger-shape_Mismatched,1,659,anxious,S2
24,19,female,5,6,Stranger-shape_Matched,1,932,anxious,S2
24,19,female,5,6,Stranger-shape_Matched,1,528,anxious,S2
24,19,female,5,6,Self-shape_Mismatched,1,538,anxious,S2
24,19,female,5,6,Familiar-shape_Mismatched,1,862,anxious,S2
24,19,female,5,6,Familiar-shape_Mismatched,1,585,anxious,S2
24,19,female,5,6,Self-shape_Matched,1,551,anxious,S2
24,19,female,5,6,Familiar-shape_Matched,1,791,anxious,S2
24,19,female,5,6,Stranger-shape_Matched,1,332,anxious,S2
24,19,female,5,6,Familiar-shape_Matched,1,390,anxious,S2
24,19,female,5,6,Familiar-shape_Mismatched,1,631,anxious,S2
24,19,female,5,6,Self-shape_Mismatched,0,458,anxious,S2
24,19,female,5,6,Familiar-shape_Matched,1,546,anxious,S2
24,19,female,5,6,Familiar-shape_Mismatched,1,553,anxious,S2
24,19,female,5,6,Familiar-shape_Matched,1,482,anxious,S2
24,19,female,5,6,Self-shape_Mismatched,1,495,anxious,S2
24,19,female,5,6,Stranger-shape_Mismatched,0,689,anxious,S2
24,19,female,5,6,Familiar-shape_Mismatched,1,690,anxious,S2
24,19,female,5,6,Stranger-shape_Mismatched,1,661,anxious,S2
24,19,female,5,6,Self-shape_Mismatched,1,670,anxious,S2
24,19,female,5,6,Stranger-shape_Matched,1,802,anxious,S2
24,19,female,5,6,Familiar-shape_Mismatched,1,554,anxious,S2
24,19,female,5,6,Self-shape_Matched,1,529,anxious,S2
24,19,female,5,6,Familiar-shape_Matched,1,523,anxious,S2
24,19,female,5,6,Stranger-shape_Mismatched,1,496,anxious,S2
24,19,female,5,6,Self-shape_Mismatched,1,564,anxious,S2
24,19,female,5,6,Stranger-shape_Mismatched,0,388,anxious,S2
24,19,female,5,6,Self-shape_Matched,0,766,anxious,S2
24,19,female,5,6,Stranger-shape_Matched,1,665,anxious,S2
24,19,female,5,6,Self-shape_Mismatched,1,716,anxious,S2
24,19,female,5,6,Familiar-shape_Mismatched,1,386,anxious,S2
24,19,female,5,6,Familiar-shape_Matched,1,459,anxious,S2
24,19,female,5,6,Self-shape_Mismatched,1,466,anxious,S2
24,19,female,5,6,Stranger-shape_Mismatched,0,386,anxious,S2
24,19,female,5,6,Self-shape_Mismatched,1,544,anxious,S2
24,19,female,5,6,Familiar-shape_Matched,1,530,anxious,S2
24,19,female,5,6,Stranger-shape_Mismatched,1,794,anxious,S2
24,19,female,5,6,Self-shape_Mismatched,1,555,anxious,S2
24,19,female,5,6,Stranger-shape_Mismatched,0,448,anxious,S2
24,19,female,5,6,Stranger-shape_Mismatched,1,440,anxious,S2
24,19,female,5,6,Familiar-shape_Mismatched,1,500,anxious,S2
24,19,female,5,6,Stranger-shape_Mismatched,1,555,anxious,S2
24,19,female,5,6,Familiar-shape_Matched,1,513,anxious,S2
24,19,female,5,6,Familiar-shape_Mismatched,1,475,anxious,S2
24,19,female,5,6,Stranger-shape_Matched,1,468,anxious,S2
24,19,female,5,6,Familiar-shape_Matched,1,616,anxious,S2
24,19,female,5,6,Stranger-shape_Matched,1,775,anxious,S2
24,19,female,5,6,Familiar-shape_Mismatched,1,616,anxious,S2
24,19,female,5,6,Self-shape_Mismatched,1,793,anxious,S2
24,19,female,5,6,Familiar-shape_Mismatched,1,580,anxious,S2
24,19,female,5,6,Familiar-shape_Mismatched,1,432,anxious,S2
24,19,female,5,6,Stranger-shape_Mismatched,1,829,anxious,S2
24,19,female,5,6,Familiar-shape_Mismatched,1,408,anxious,S2
24,19,female,5,6,Self-shape_Matched,1,469,anxious,S2
24,19,female,5,6,Familiar-shape_Matched,1,495,anxious,S2
24,19,female,5,6,Familiar-shape_Mismatched,1,490,anxious,S2
24,19,female,5,6,Familiar-shape_Matched,1,563,anxious,S2
24,19,female,5,6,Self-shape_Mismatched,1,519,anxious,S2
24,19,female,5,6,Self-shape_Mismatched,1,463,anxious,S2
24,19,female,5,6,Stranger-shape_Mismatched,0,417,anxious,S2
24,19,female,5,6,Stranger-shape_Matched,0,582,anxious,S2
24,19,female,5,6,Self-shape_Matched,1,695,anxious,S2
24,19,female,5,6,Self-shape_Matched,1,354,anxious,S2
24,19,female,5,6,Stranger-shape_Matched,1,707,anxious,S2
24,19,female,5,6,Familiar-shape_Matched,1,418,anxious,S2
24,19,female,5,6,Familiar-shape_Matched,1,400,anxious,S2
24,19,female,5,6,Self-shape_Matched,1,416,anxious,S2
24,19,female,5,6,Familiar-shape_Mismatched,1,533,anxious,S2
24,19,female,5,6,Stranger-shape_Matched,1,577,anxious,S2
24,19,female,5,6,Self-shape_Mismatched,1,551,anxious,S2
24,19,female,5,6,Familiar-shape_Mismatched,1,466,anxious,S2
24,19,female,5,6,Stranger-shape_Mismatched,1,577,anxious,S2
24,19,female,5,6,Self-shape_Matched,1,632,anxious,S2
24,19,female,5,6,Familiar-shape_Matched,1,502,anxious,S2
24,19,female,5,6,Stranger-shape_Matched,1,323,anxious,S2
24,19,female,5,6,Familiar-shape_Matched,1,423,anxious,S2
24,19,female,5,6,Stranger-shape_Matched,1,485,anxious,S2
24,19,female,5,6,Self-shape_Matched,1,413,anxious,S2
24,19,female,5,6,Stranger-shape_Mismatched,1,692,anxious,S2
24,19,female,5,6,Stranger-shape_Matched,1,531,anxious,S2
24,19,female,5,6,Familiar-shape_Matched,1,404,anxious,S2
24,19,female,5,6,Self-shape_Mismatched,1,595,anxious,S2
24,19,female,5,6,Stranger-shape_Mismatched,1,597,anxious,S2
24,19,female,5,6,Self-shape_Matched,1,442,anxious,S2
24,19,female,5,6,Stranger-shape_Matched,1,763,anxious,S2
24,19,female,5,6,Stranger-shape_Mismatched,1,538,anxious,S2
24,19,female,5,6,Self-shape_Mismatched,1,545,anxious,S2
24,19,female,5,6,Self-shape_Matched,1,347,anxious,S2
24,19,female,5,6,Familiar-shape_Mismatched,1,586,anxious,S2
24,19,female,5,6,Stranger-shape_Mismatched,1,529,anxious,S2
24,19,female,5,6,Familiar-shape_Matched,1,634,anxious,S2
24,19,female,5,6,Self-shape_Mismatched,1,795,anxious,S2
24,19,female,5,6,Self-shape_Matched,1,355,anxious,S2
24,19,female,5,6,Self-shape_Matched,1,372,anxious,S2
24,19,female,5,6,Self-shape_Mismatched,1,503,anxious,S2
24,19,female,5,6,Familiar-shape_Mismatched,1,614,anxious,S2
24,19,female,5,6,Stranger-shape_Matched,1,769,anxious,S2
24,19,female,5,6,Stranger-shape_Matched,1,466,anxious,S2
24,19,female,5,6,Self-shape_Matched,1,427,anxious,S2
30,18,female,5,3,Familiar-shape_Mismatched,0,664,anxious,S2
30,18,female,5,3,Stranger-shape_Mismatched,1,420,anxious,S2
30,18,female,5,3,Self-shape_Mismatched,1,879,anxious,S2
30,18,female,5,3,Familiar-shape_Mismatched,1,524,anxious,S2
30,18,female,5,3,Familiar-shape_Matched,1,634,anxious,S2
30,18,female,5,3,Self-shape_Matched,1,524,anxious,S2
30,18,female,5,3,Stranger-shape_Mismatched,1,666,anxious,S2
30,18,female,5,3,Self-shape_Mismatched,0,481,anxious,S2
30,18,female,5,3,Stranger-shape_Matched,1,655,anxious,S2
30,18,female,5,3,Familiar-shape_Mismatched,1,477,anxious,S2
30,18,female,5,3,Stranger-shape_Matched,1,507,anxious,S2
30,18,female,5,3,Self-shape_Matched,1,457,anxious,S2
30,18,female,5,3,Self-shape_Matched,0,676,anxious,S2
30,18,female,5,3,Familiar-shape_Mismatched,1,470,anxious,S2
30,18,female,5,3,Self-shape_Mismatched,1,732,anxious,S2
30,18,female,5,3,Stranger-shape_Matched,1,699,anxious,S2
30,18,female,5,3,Self-shape_Mismatched,0,587,anxious,S2
30,18,female,5,3,Self-shape_Matched,1,425,anxious,S2
30,18,female,5,3,Self-shape_Mismatched,0,910,anxious,S2
30,18,female,5,3,Familiar-shape_Mismatched,1,521,anxious,S2
30,18,female,5,3,Self-shape_Mismatched,1,404,anxious,S2
30,18,female,5,3,Self-shape_Matched,1,603,anxious,S2
30,18,female,5,3,Self-shape_Matched,1,704,anxious,S2
30,18,female,5,3,Stranger-shape_Matched,1,950,anxious,S2
30,18,female,5,3,Stranger-shape_Mismatched,1,486,anxious,S2
30,18,female,5,3,Stranger-shape_Matched,1,706,anxious,S2
30,18,female,5,3,Familiar-shape_Mismatched,1,745,anxious,S2
30,18,female,5,3,Stranger-shape_Mismatched,1,603,anxious,S2
30,18,female,5,3,Familiar-shape_Mismatched,1,686,anxious,S2
30,18,female,5,3,Familiar-shape_Matched,0,794,anxious,S2
30,18,female,5,3,Stranger-shape_Mismatched,1,743,anxious,S2
30,18,female,5,3,Self-shape_Matched,1,669,anxious,S2
30,18,female,5,3,Stranger-shape_Mismatched,1,766,anxious,S2
30,18,female,5,3,Familiar-shape_Matched,1,587,anxious,S2
30,18,female,5,3,Stranger-shape_Mismatched,1,774,anxious,S2
30,18,female,5,3,Self-shape_Matched,1,626,anxious,S2
30,18,female,5,3,Familiar-shape_Matched,1,397,anxious,S2
30,18,female,5,3,Self-shape_Mismatched,1,584,anxious,S2
30,18,female,5,3,Self-shape_Mismatched,1,377,anxious,S2
30,18,female,5,3,Self-shape_Matched,0,609,anxious,S2
30,18,female,5,3,Self-shape_Mismatched,0,455,anxious,S2
30,18,female,5,3,Familiar-shape_Mismatched,0,526,anxious,S2
30,18,female,5,3,Familiar-shape_Matched,0,988,anxious,S2
30,18,female,5,3,Familiar-shape_Mismatched,0,356,anxious,S2
30,18,female,5,3,Stranger-shape_Mismatched,1,921,anxious,S2
30,18,female,5,3,Familiar-shape_Matched,1,796,anxious,S2
30,18,female,5,3,Stranger-shape_Mismatched,1,609,anxious,S2
30,18,female,5,3,Familiar-shape_Matched,1,462,anxious,S2
30,18,female,5,3,Self-shape_Matched,1,421,anxious,S2
30,18,female,5,3,Familiar-shape_Matched,1,359,anxious,S2
30,18,female,5,3,Self-shape_Mismatched,1,550,anxious,S2
30,18,female,5,3,Familiar-shape_Mismatched,1,976,anxious,S2
30,18,female,5,3,Stranger-shape_Matched,1,769,anxious,S2
30,18,female,5,3,Familiar-shape_Matched,1,650,anxious,S2
30,18,female,5,3,Familiar-shape_Matched,1,348,anxious,S2
30,18,female,5,3,Stranger-shape_Matched,1,646,anxious,S2
30,18,female,5,3,Familiar-shape_Matched,1,558,anxious,S2
30,18,female,5,3,Stranger-shape_Matched,1,567,anxious,S2
30,18,female,5,3,Stranger-shape_Mismatched,0,462,anxious,S2
30,18,female,5,3,Self-shape_Matched,1,637,anxious,S2
30,18,female,5,3,Self-shape_Mismatched,1,804,anxious,S2
30,18,female,5,3,Stranger-shape_Mismatched,1,503,anxious,S2
30,18,female,5,3,Familiar-shape_Mismatched,1,644,anxious,S2
30,18,female,5,3,Stranger-shape_Matched,1,429,anxious,S2
30,18,female,5,3,Stranger-shape_Mismatched,1,593,anxious,S2
30,18,female,5,3,Stranger-shape_Matched,0,445,anxious,S2
30,18,female,5,3,Stranger-shape_Matched,1,653,anxious,S2
30,18,female,5,3,Stranger-shape_Matched,1,580,anxious,S2
30,18,female,5,3,Familiar-shape_Matched,1,271,anxious,S2
30,18,female,5,3,Self-shape_Mismatched,1,405,anxious,S2
30,18,female,5,3,Stranger-shape_Matched,1,443,anxious,S2
30,18,female,5,3,Self-shape_Mismatched,1,813,anxious,S2
30,18,female,5,3,Familiar-shape_Matched,1,658,anxious,S2
30,18,female,5,3,Familiar-shape_Mismatched,1,627,anxious,S2
30,18,female,5,3,Self-shape_Mismatched,1,809,anxious,S2
30,18,female,5,3,Stranger-shape_Mismatched,0,481,anxious,S2
30,18,female,5,3,Self-shape_Matched,1,736,anxious,S2
30,18,female,5,3,Self-shape_Mismatched,1,615,anxious,S2
30,18,female,5,3,Stranger-shape_Matched,1,466,anxious,S2
30,18,female,5,3,Self-shape_Mismatched,1,454,anxious,S2
30,18,female,5,3,Self-shape_Matched,1,511,anxious,S2
30,18,female,5,3,Familiar-shape_Matched,1,760,anxious,S2
30,18,female,5,3,Stranger-shape_Mismatched,1,947,anxious,S2
30,18,female,5,3,Familiar-shape_Mismatched,1,638,anxious,S2
30,18,female,5,3,Stranger-shape_Mismatched,1,620,anxious,S2
30,18,female,5,3,Familiar-shape_Matched,1,975,anxious,S2
30,18,female,5,3,Familiar-shape_Mismatched,1,599,anxious,S2
30,18,female,5,3,Familiar-shape_Matched,1,432,anxious,S2
30,18,female,5,3,Stranger-shape_Mismatched,1,459,anxious,S2
30,18,female,5,3,Familiar-shape_Matched,1,396,anxious,S2
30,18,female,5,3,Stranger-shape_Matched,0,316,anxious,S2
30,18,female,5,3,Self-shape_Matched,1,591,anxious,S2
30,18,female,5,3,Familiar-shape_Mismatched,0,345,anxious,S2
30,18,female,5,3,Familiar-shape_Mismatched,1,328,anxious,S2
30,18,female,5,3,Self-shape_Mismatched,1,433,anxious,S2
30,18,female,5,3,Familiar-shape_Matched,1,624,anxious,S2
30,18,female,5,3,Self-shape_Matched,0,428,anxious,S2
30,18,female,5,3,Self-shape_Matched,1,300,anxious,S2
30,18,female,5,3,Stranger-shape_Mismatched,1,887,anxious,S2
30,18,female,5,3,Stranger-shape_Mismatched,1,655,anxious,S2
30,18,female,5,3,Stranger-shape_Matched,1,625,anxious,S2
30,18,female,5,3,Self-shape_Matched,1,648,anxious,S2
30,18,female,5,3,Self-shape_Matched,1,374,anxious,S2
30,18,female,5,3,Self-shape_Matched,1,310,anxious,S2
30,18,female,5,3,Self-shape_Matched,1,264,anxious,S2
30,18,female,5,3,Familiar-shape_Mismatched,1,490,anxious,S2
30,18,female,5,3,Stranger-shape_Mismatched,1,777,anxious,S2
30,18,female,5,3,Familiar-shape_Matched,1,767,anxious,S2
30,18,female,5,3,Stranger-shape_Matched,1,986,anxious,S2
30,18,female,5,3,Stranger-shape_Mismatched,1,470,anxious,S2
30,18,female,5,3,Self-shape_Mismatched,0,690,anxious,S2
30,18,female,5,3,Stranger-shape_Mismatched,1,580,anxious,S2
30,18,female,5,3,Self-shape_Mismatched,1,771,anxious,S2
30,18,female,5,3,Self-shape_Mismatched,1,956,anxious,S2
30,18,female,5,3,Familiar-shape_Matched,1,772,anxious,S2
30,18,female,5,3,Stranger-shape_Mismatched,1,777,anxious,S2
30,18,female,5,3,Familiar-shape_Mismatched,1,453,anxious,S2
30,18,female,5,3,Self-shape_Matched,1,588,anxious,S2
30,18,female,5,3,Familiar-shape_Mismatched,1,458,anxious,S2
30,18,female,5,3,Stranger-shape_Matched,0,483,anxious,S2
30,18,female,5,3,Stranger-shape_Matched,1,246,anxious,S2
30,18,female,5,3,Familiar-shape_Matched,1,579,anxious,S2
30,18,female,5,3,Stranger-shape_Matched,1,600,anxious,S2
30,18,female,5,3,Familiar-shape_Mismatched,0,419,anxious,S2
30,18,female,5,3,Self-shape_Mismatched,0,396,anxious,S2
30,18,female,5,3,Familiar-shape_Mismatched,1,600,anxious,S2
30,18,female,5,3,Self-shape_Matched,1,581,anxious,S2
30,18,female,5,3,Stranger-shape_Matched,0,571,anxious,S2
30,18,female,5,3,Stranger-shape_Matched,1,251,anxious,S2
30,18,female,5,3,Self-shape_Mismatched,1,831,anxious,S2
30,18,female,5,3,Familiar-shape_Mismatched,1,610,anxious,S2
30,18,female,5,3,Self-shape_Mismatched,1,481,anxious,S2
30,18,female,5,3,Stranger-shape_Matched,1,611,anxious,S2
30,18,female,5,3,Stranger-shape_Mismatched,0,358,anxious,S2
30,18,female,5,3,Stranger-shape_Mismatched,1,470,anxious,S2
30,18,female,5,3,Familiar-shape_Matched,1,834,anxious,S2
30,18,female,5,3,Self-shape_Matched,1,468,anxious,S2
30,18,female,5,3,Familiar-shape_Matched,1,339,anxious,S2
30,18,female,5,3,Familiar-shape_Matched,1,385,anxious,S2
30,18,female,5,3,Stranger-shape_Matched,1,365,anxious,S2
33,20,female,5,6,Familiar-shape_Matched,0,568,anxious,S2
33,20,female,5,6,Stranger-shape_Matched,1,813,anxious,S2
33,20,female,5,6,Stranger-shape_Matched,1,558,anxious,S2
33,20,female,5,6,Self-shape_Mismatched,1,429,anxious,S2
33,20,female,5,6,Self-shape_Matched,1,630,anxious,S2
33,20,female,5,6,Stranger-shape_Mismatched,1,561,anxious,S2
33,20,female,5,6,Familiar-shape_Mismatched,0,409,anxious,S2
33,20,female,5,6,Stranger-shape_Mismatched,1,631,anxious,S2
33,20,female,5,6,Self-shape_Matched,1,594,anxious,S2
33,20,female,5,6,Stranger-shape_Matched,1,540,anxious,S2
33,20,female,5,6,Stranger-shape_Mismatched,0,445,anxious,S2
33,20,female,5,6,Stranger-shape_Mismatched,1,612,anxious,S2
33,20,female,5,6,Self-shape_Matched,1,397,anxious,S2
33,20,female,5,6,Self-shape_Mismatched,1,522,anxious,S2
33,20,female,5,6,Familiar-shape_Matched,1,631,anxious,S2
33,20,female,5,6,Familiar-shape_Matched,0,734,anxious,S2
33,20,female,5,6,Familiar-shape_Mismatched,1,589,anxious,S2
33,20,female,5,6,Familiar-shape_Mismatched,1,665,anxious,S2
33,20,female,5,6,Self-shape_Matched,1,373,anxious,S2
33,20,female,5,6,Self-shape_Mismatched,1,652,anxious,S2
33,20,female,5,6,Stranger-shape_Matched,1,513,anxious,S2
33,20,female,5,6,Self-shape_Matched,1,417,anxious,S2
33,20,female,5,6,Familiar-shape_Matched,1,317,anxious,S2
33,20,female,5,6,Stranger-shape_Mismatched,1,546,anxious,S2
33,20,female,5,6,Self-shape_Matched,1,407,anxious,S2
33,20,female,5,6,Familiar-shape_Mismatched,1,602,anxious,S2
33,20,female,5,6,Familiar-shape_Matched,1,492,anxious,S2
33,20,female,5,6,Self-shape_Mismatched,0,497,anxious,S2
33,20,female,5,6,Stranger-shape_Mismatched,1,590,anxious,S2
33,20,female,5,6,Stranger-shape_Matched,1,502,anxious,S2
33,20,female,5,6,Self-shape_Mismatched,1,578,anxious,S2
33,20,female,5,6,Self-shape_Matched,1,371,anxious,S2
33,20,female,5,6,Familiar-shape_Mismatched,1,403,anxious,S2
33,20,female,5,6,Familiar-shape_Matched,1,395,anxious,S2
33,20,female,5,6,Familiar-shape_Matched,1,433,anxious,S2
33,20,female,5,6,Stranger-shape_Matched,1,484,anxious,S2
33,20,female,5,6,Stranger-shape_Matched,1,497,anxious,S2
33,20,female,5,6,Self-shape_Mismatched,1,514,anxious,S2
33,20,female,5,6,Self-shape_Matched,1,347,anxious,S2
33,20,female,5,6,Stranger-shape_Mismatched,1,445,anxious,S2
33,20,female,5,6,Self-shape_Mismatched,0,387,anxious,S2
33,20,female,5,6,Stranger-shape_Mismatched,1,629,anxious,S2
33,20,female,5,6,Familiar-shape_Matched,1,551,anxious,S2
33,20,female,5,6,Self-shape_Mismatched,1,540,anxious,S2
33,20,female,5,6,Self-shape_Mismatched,1,629,anxious,S2
33,20,female,5,6,Familiar-shape_Mismatched,1,544,anxious,S2
33,20,female,5,6,Familiar-shape_Mismatched,0,453,anxious,S2
33,20,female,5,6,Familiar-shape_Matched,1,470,anxious,S2
33,20,female,5,6,Familiar-shape_Mismatched,0,356,anxious,S2
33,20,female,5,6,Stranger-shape_Mismatched,1,437,anxious,S2
33,20,female,5,6,Stranger-shape_Mismatched,1,464,anxious,S2
33,20,female,5,6,Familiar-shape_Matched,1,433,anxious,S2
33,20,female,5,6,Stranger-shape_Matched,1,488,anxious,S2
33,20,female,5,6,Stranger-shape_Matched,1,525,anxious,S2
33,20,female,5,6,Self-shape_Mismatched,1,544,anxious,S2
33,20,female,5,6,Familiar-shape_Mismatched,1,536,anxious,S2
33,20,female,5,6,Stranger-shape_Matched,1,470,anxious,S2
33,20,female,5,6,Self-shape_Matched,1,445,anxious,S2
33,20,female,5,6,Familiar-shape_Matched,1,379,anxious,S2
33,20,female,5,6,Stranger-shape_Matched,1,548,anxious,S2
33,20,female,5,6,Self-shape_Matched,1,501,anxious,S2
33,20,female,5,6,Stranger-shape_Matched,1,518,anxious,S2
33,20,female,5,6,Familiar-shape_Mismatched,1,498,anxious,S2
33,20,female,5,6,Self-shape_Matched,1,562,anxious,S2
33,20,female,5,6,Familiar-shape_Mismatched,1,627,anxious,S2
33,20,female,5,6,Self-shape_Mismatched,1,711,anxious,S2
33,20,female,5,6,Stranger-shape_Mismatched,1,467,anxious,S2
33,20,female,5,6,Stranger-shape_Mismatched,1,697,anxious,S2
33,20,female,5,6,Familiar-shape_Mismatched,0,766,anxious,S2
33,20,female,5,6,Familiar-shape_Matched,1,435,anxious,S2
33,20,female,5,6,Self-shape_Matched,1,425,anxious,S2
33,20,female,5,6,Self-shape_Mismatched,1,623,anxious,S2
33,20,female,5,6,Familiar-shape_Mismatched,1,545,anxious,S2
33,20,female,5,6,Familiar-shape_Mismatched,1,471,anxious,S2
33,20,female,5,6,Familiar-shape_Mismatched,1,407,anxious,S2
33,20,female,5,6,Stranger-shape_Matched,0,529,anxious,S2
33,20,female,5,6,Stranger-shape_Matched,1,400,anxious,S2
33,20,female,5,6,Stranger-shape_Matched,1,388,anxious,S2
33,20,female,5,6,Familiar-shape_Matched,1,620,anxious,S2
33,20,female,5,6,Stranger-shape_Mismatched,1,564,anxious,S2
33,20,female,5,6,Self-shape_Matched,1,368,anxious,S2
33,20,female,5,6,Self-shape_Matched,1,644,anxious,S2
33,20,female,5,6,Stranger-shape_Matched,1,511,anxious,S2
33,20,female,5,6,Familiar-shape_Mismatched,1,499,anxious,S2
33,20,female,5,6,Stranger-shape_Mismatched,1,556,anxious,S2
33,20,female,5,6,Familiar-shape_Matched,1,539,anxious,S2
33,20,female,5,6,Stranger-shape_Matched,0,537,anxious,S2
33,20,female,5,6,Familiar-shape_Matched,1,665,anxious,S2
33,20,female,5,6,Self-shape_Matched,1,397,anxious,S2
33,20,female,5,6,Self-shape_Mismatched,1,572,anxious,S2
33,20,female,5,6,Stranger-shape_Mismatched,1,570,anxious,S2
33,20,female,5,6,Self-shape_Mismatched,0,521,anxious,S2
33,20,female,5,6,Self-shape_Mismatched,1,798,anxious,S2
33,20,female,5,6,Self-shape_Mismatched,1,645,anxious,S2
33,20,female,5,6,Familiar-shape_Mismatched,1,473,anxious,S2
33,20,female,5,6,Stranger-shape_Matched,1,491,anxious,S2
33,20,female,5,6,Familiar-shape_Mismatched,1,576,anxious,S2
33,20,female,5,6,Familiar-shape_Matched,1,616,anxious,S2
33,20,female,5,6,Self-shape_Mismatched,1,571,anxious,S2
33,20,female,5,6,Self-shape_Mismatched,1,612,anxious,S2
33,20,female,5,6,Stranger-shape_Mismatched,1,461,anxious,S2
33,20,female,5,6,Self-shape_Mismatched,1,547,anxious,S2
33,20,female,5,6,Stranger-shape_Mismatched,1,479,anxious,S2
33,20,female,5,6,Familiar-shape_Mismatched,1,465,anxious,S2
33,20,female,5,6,Self-shape_Matched,0,437,anxious,S2
33,20,female,5,6,Self-shape_Matched,1,569,anxious,S2
33,20,female,5,6,Self-shape_Mismatched,1,448,anxious,S2
33,20,female,5,6,Self-shape_Mismatched,1,590,anxious,S2
33,20,female,5,6,Stranger-shape_Mismatched,1,459,anxious,S2
33,20,female,5,6,Familiar-shape_Mismatched,1,513,anxious,S2
33,20,female,5,6,Familiar-shape_Mismatched,1,503,anxious,S2
33,20,female,5,6,Stranger-shape_Matched,1,492,anxious,S2
33,20,female,5,6,Self-shape_Matched,1,480,anxious,S2
33,20,female,5,6,Familiar-shape_Matched,1,334,anxious,S2
33,20,female,5,6,Self-shape_Matched,1,411,anxious,S2
33,20,female,5,6,Familiar-shape_Mismatched,1,457,anxious,S2
33,20,female,5,6,Familiar-shape_Matched,0,568,anxious,S2
33,20,female,5,6,Stranger-shape_Mismatched,1,562,anxious,S2
33,20,female,5,6,Familiar-shape_Matched,1,392,anxious,S2
33,20,female,5,6,Stranger-shape_Mismatched,1,423,anxious,S2
33,20,female,5,6,Familiar-shape_Matched,1,319,anxious,S2
33,20,female,5,6,Stranger-shape_Matched,1,445,anxious,S2
33,20,female,5,6,Self-shape_Matched,1,252,anxious,S2
33,20,female,5,6,Self-shape_Mismatched,1,462,anxious,S2
33,20,female,5,6,Stranger-shape_Matched,1,580,anxious,S2
33,20,female,5,6,Self-shape_Mismatched,1,658,anxious,S2
33,20,female,5,6,Self-shape_Mismatched,1,561,anxious,S2
33,20,female,5,6,Self-shape_Matched,1,310,anxious,S2
33,20,female,5,6,Stranger-shape_Mismatched,1,556,anxious,S2
33,20,female,5,6,Familiar-shape_Matched,1,567,anxious,S2
33,20,female,5,6,Self-shape_Matched,1,665,anxious,S2
33,20,female,5,6,Stranger-shape_Mismatched,1,473,anxious,S2
33,20,female,5,6,Stranger-shape_Matched,1,387,anxious,S2
33,20,female,5,6,Stranger-shape_Mismatched,1,554,anxious,S2
33,20,female,5,6,Familiar-shape_Matched,1,611,anxious,S2
33,20,female,5,6,Familiar-shape_Mismatched,1,622,anxious,S2
33,20,female,5,6,Familiar-shape_Matched,1,774,anxious,S2
33,20,female,5,6,Stranger-shape_Mismatched,1,503,anxious,S2
33,20,female,5,6,Self-shape_Matched,1,499,anxious,S2
33,20,female,5,6,Self-shape_Matched,1,280,anxious,S2
33,20,female,5,6,Stranger-shape_Matched,1,547,anxious,S2
33,20,female,5,6,Familiar-shape_Mismatched,0,361,anxious,S2
33,20,female,5,6,Stranger-shape_Matched,1,466,anxious,S2
33,20,female,5,6,Familiar-shape_Matched,1,288,anxious,S2
34,21,female,5,5,Stranger-shape_Mismatched,1,862,anxious,S1
34,21,female,5,5,Familiar-shape_Matched,1,465,anxious,S1
34,21,female,5,5,Self-shape_Mismatched,0,820,anxious,S1
34,21,female,5,5,Stranger-shape_Matched,1,587,anxious,S1
34,21,female,5,5,Self-shape_Mismatched,1,678,anxious,S1
34,21,female,5,5,Familiar-shape_Matched,1,499,anxious,S1
34,21,female,5,5,Self-shape_Mismatched,1,554,anxious,S1
34,21,female,5,5,Self-shape_Matched,1,303,anxious,S1
34,21,female,5,5,Self-shape_Matched,1,247,anxious,S1
34,21,female,5,5,Familiar-shape_Mismatched,1,630,anxious,S1
34,21,female,5,5,Self-shape_Matched,1,337,anxious,S1
34,21,female,5,5,Familiar-shape_Mismatched,1,561,anxious,S1
34,21,female,5,5,Familiar-shape_Mismatched,0,377,anxious,S1
34,21,female,5,5,Self-shape_Matched,1,234,anxious,S1
34,21,female,5,5,Stranger-shape_Matched,1,559,anxious,S1
34,21,female,5,5,Stranger-shape_Matched,0,473,anxious,S1
34,21,female,5,5,Familiar-shape_Mismatched,0,430,anxious,S1
34,21,female,5,5,Self-shape_Matched,1,373,anxious,S1
34,21,female,5,5,Stranger-shape_Mismatched,1,702,anxious,S1
34,21,female,5,5,Self-shape_Matched,1,327,anxious,S1
34,21,female,5,5,Self-shape_Mismatched,1,520,anxious,S1
34,21,female,5,5,Self-shape_Matched,1,308,anxious,S1
34,21,female,5,5,Familiar-shape_Matched,1,419,anxious,S1
34,21,female,5,5,Self-shape_Mismatched,1,526,anxious,S1
34,21,female,5,5,Familiar-shape_Mismatched,1,500,anxious,S1
34,21,female,5,5,Stranger-shape_Mismatched,1,678,anxious,S1
34,21,female,5,5,Familiar-shape_Mismatched,1,475,anxious,S1
34,21,female,5,5,Self-shape_Mismatched,1,631,anxious,S1
34,21,female,5,5,Familiar-shape_Mismatched,1,476,anxious,S1
34,21,female,5,5,Stranger-shape_Mismatched,1,652,anxious,S1
34,21,female,5,5,Stranger-shape_Matched,1,637,anxious,S1
34,21,female,5,5,Stranger-shape_Matched,1,587,anxious,S1
34,21,female,5,5,Stranger-shape_Matched,1,489,anxious,S1
34,21,female,5,5,Self-shape_Mismatched,1,581,anxious,S1
34,21,female,5,5,Self-shape_Mismatched,1,616,anxious,S1
34,21,female,5,5,Familiar-shape_Mismatched,1,498,anxious,S1
34,21,female,5,5,Self-shape_Matched,1,451,anxious,S1
34,21,female,5,5,Familiar-shape_Matched,1,604,anxious,S1
34,21,female,5,5,Self-shape_Matched,1,422,anxious,S1
34,21,female,5,5,Stranger-shape_Matched,1,691,anxious,S1
34,21,female,5,5,Stranger-shape_Mismatched,1,509,anxious,S1
34,21,female,5,5,Familiar-shape_Mismatched,1,670,anxious,S1
34,21,female,5,5,Familiar-shape_Mismatched,1,502,anxious,S1
34,21,female,5,5,Self-shape_Matched,1,377,anxious,S1
34,21,female,5,5,Familiar-shape_Mismatched,1,390,anxious,S1
34,21,female,5,5,Self-shape_Matched,1,425,anxious,S1
34,21,female,5,5,Stranger-shape_Mismatched,1,386,anxious,S1
34,21,female,5,5,Familiar-shape_Matched,1,495,anxious,S1
34,21,female,5,5,Stranger-shape_Mismatched,1,573,anxious,S1
34,21,female,5,5,Familiar-shape_Matched,1,537,anxious,S1
34,21,female,5,5,Stranger-shape_Mismatched,1,425,anxious,S1
34,21,female,5,5,Self-shape_Mismatched,1,549,anxious,S1
34,21,female,5,5,Familiar-shape_Matched,1,544,anxious,S1
34,21,female,5,5,Familiar-shape_Matched,1,494,anxious,S1
34,21,female,5,5,Stranger-shape_Mismatched,1,513,anxious,S1
34,21,female,5,5,Self-shape_Mismatched,1,491,anxious,S1
34,21,female,5,5,Stranger-shape_Matched,1,552,anxious,S1
34,21,female,5,5,Self-shape_Mismatched,1,558,anxious,S1
34,21,female,5,5,Familiar-shape_Matched,1,496,anxious,S1
34,21,female,5,5,Stranger-shape_Matched,0,427,anxious,S1
34,21,female,5,5,Familiar-shape_Matched,1,415,anxious,S1
34,21,female,5,5,Self-shape_Mismatched,1,683,anxious,S1
34,21,female,5,5,Self-shape_Matched,1,343,anxious,S1
34,21,female,5,5,Stranger-shape_Mismatched,1,727,anxious,S1
34,21,female,5,5,Stranger-shape_Mismatched,0,439,anxious,S1
34,21,female,5,5,Stranger-shape_Mismatched,1,768,anxious,S1
34,21,female,5,5,Stranger-shape_Matched,1,694,anxious,S1
34,21,female,5,5,Familiar-shape_Mismatched,1,586,anxious,S1
34,21,female,5,5,Familiar-shape_Matched,1,589,anxious,S1
34,21,female,5,5,Stranger-shape_Matched,1,938,anxious,S1
34,21,female,5,5,Stranger-shape_Matched,1,686,anxious,S1
34,21,female,5,5,Familiar-shape_Matched,1,484,anxious,S1
34,21,female,5,5,Self-shape_Mismatched,1,696,anxious,S1
34,21,female,5,5,Stranger-shape_Mismatched,1,872,anxious,S1
34,21,female,5,5,Familiar-shape_Mismatched,1,550,anxious,S1
34,21,female,5,5,Self-shape_Mismatched,1,558,anxious,S1
34,21,female,5,5,Familiar-shape_Matched,1,570,anxious,S1
34,21,female,5,5,Stranger-shape_Matched,1,657,anxious,S1
34,21,female,5,5,Familiar-shape_Matched,1,467,anxious,S1
34,21,female,5,5,Self-shape_Mismatched,1,714,anxious,S1
34,21,female,5,5,Stranger-shape_Matched,1,461,anxious,S1
34,21,female,5,5,Self-shape_Matched,1,354,anxious,S1
34,21,female,5,5,Self-shape_Mismatched,1,563,anxious,S1
34,21,female,5,5,Familiar-shape_Mismatched,1,574,anxious,S1
34,21,female,5,5,Stranger-shape_Mismatched,1,644,anxious,S1
34,21,female,5,5,Stranger-shape_Mismatched,1,805,anxious,S1
34,21,female,5,5,Familiar-shape_Mismatched,1,612,anxious,S1
34,21,female,5,5,Self-shape_Mismatched,1,536,anxious,S1
34,21,female,5,5,Self-shape_Mismatched,1,592,anxious,S1
34,21,female,5,5,Stranger-shape_Mismatched,1,631,anxious,S1
34,21,female,5,5,Stranger-shape_Matched,1,616,anxious,S1
34,21,female,5,5,Stranger-shape_Matched,1,491,anxious,S1
34,21,female,5,5,Self-shape_Mismatched,1,513,anxious,S1
34,21,female,5,5,Self-shape_Mismatched,0,654,anxious,S1
34,21,female,5,5,Familiar-shape_Mismatched,1,685,anxious,S1
34,21,female,5,5,Stranger-shape_Mismatched,1,779,anxious,S1
34,21,female,5,5,Self-shape_Matched,1,394,anxious,S1
34,21,female,5,5,Self-shape_Matched,1,386,anxious,S1
34,21,female,5,5,Stranger-shape_Mismatched,1,473,anxious,S1
34,21,female,5,5,Stranger-shape_Mismatched,1,987,anxious,S1
34,21,female,5,5,Familiar-shape_Matched,1,456,anxious,S1
34,21,female,5,5,Stranger-shape_Mismatched,1,439,anxious,S1
34,21,female,5,5,Familiar-shape_Matched,1,616,anxious,S1
34,21,female,5,5,Familiar-shape_Matched,1,354,anxious,S1
34,21,female,5,5,Self-shape_Mismatched,1,549,anxious,S1
34,21,female,5,5,Stranger-shape_Matched,1,610,anxious,S1
34,21,female,5,5,Familiar-shape_Matched,1,576,anxious,S1
34,21,female,5,5,Familiar-shape_Matched,1,364,anxious,S1
34,21,female,5,5,Self-shape_Matched,1,271,anxious,S1
34,21,female,5,5,Familiar-shape_Mismatched,1,580,anxious,S1
34,21,female,5,5,Familiar-shape_Mismatched,0,664,anxious,S1
34,21,female,5,5,Stranger-shape_Matched,1,556,anxious,S1
34,21,female,5,5,Familiar-shape_Matched,1,427,anxious,S1
34,21,female,5,5,Familiar-shape_Matched,1,312,anxious,S1
34,21,female,5,5,Familiar-shape_Mismatched,1,458,anxious,S1
34,21,female,5,5,Stranger-shape_Matched,1,450,anxious,S1
34,21,female,5,5,Self-shape_Mismatched,1,491,anxious,S1
34,21,female,5,5,Familiar-shape_Matched,1,468,anxious,S1
34,21,female,5,5,Self-shape_Matched,1,605,anxious,S1
34,21,female,5,5,Stranger-shape_Mismatched,1,750,anxious,S1
34,21,female,5,5,Familiar-shape_Mismatched,0,422,anxious,S1
34,21,female,5,5,Self-shape_Mismatched,1,500,anxious,S1
34,21,female,5,5,Familiar-shape_Matched,1,474,anxious,S1
34,21,female,5,5,Familiar-shape_Mismatched,1,499,anxious,S1
34,21,female,5,5,Self-shape_Matched,1,290,anxious,S1
34,21,female,5,5,Self-shape_Matched,1,403,anxious,S1
34,21,female,5,5,Stranger-shape_Matched,1,425,anxious,S1
34,21,female,5,5,Stranger-shape_Mismatched,1,727,anxious,S1
34,21,female,5,5,Stranger-shape_Mismatched,1,713,anxious,S1
34,21,female,5,5,Stranger-shape_Matched,1,601,anxious,S1
34,21,female,5,5,Familiar-shape_Matched,1,630,anxious,S1
34,21,female,5,5,Familiar-shape_Mismatched,1,442,anxious,S1
34,21,female,5,5,Stranger-shape_Matched,1,783,anxious,S1
34,21,female,5,5,Familiar-shape_Mismatched,1,590,anxious,S1
34,21,female,5,5,Self-shape_Matched,1,374,anxious,S1
34,21,female,5,5,Self-shape_Mismatched,0,627,anxious,S1
34,21,female,5,5,Familiar-shape_Mismatched,1,554,anxious,S1
34,21,female,5,5,Self-shape_Matched,1,359,anxious,S1
34,21,female,5,5,Stranger-shape_Matched,1,556,anxious,S1
34,21,female,5,5,Self-shape_Matched,1,389,anxious,S1
34,21,female,5,5,Self-shape_Matched,1,268,anxious,S1
34,21,female,5,5,Stranger-shape_Mismatched,1,680,anxious,S1
34,21,female,5,5,Stranger-shape_Matched,1,573,anxious,S1
34,21,female,5,5,Self-shape_Matched,1,381,anxious,S1
18,18,male,7,4,Familiar-shape_Matched,1,524,anxious,S3
18,18,male,7,4,Stranger-shape_Matched,0,512,anxious,S3
18,18,male,7,4,Familiar-shape_Matched,1,493,anxious,S3
18,18,male,7,4,Self-shape_Matched,1,464,anxious,S3
18,18,male,7,4,Self-shape_Mismatched,1,447,anxious,S3
18,18,male,7,4,Self-shape_Mismatched,0,518,anxious,S3
18,18,male,7,4,Stranger-shape_Matched,1,646,anxious,S3
18,18,male,7,4,Stranger-shape_Mismatched,1,511,anxious,S3
18,18,male,7,4,Stranger-shape_Mismatched,1,703,anxious,S3
18,18,male,7,4,Familiar-shape_Mismatched,1,424,anxious,S3
18,18,male,7,4,Self-shape_Mismatched,1,529,anxious,S3
18,18,male,7,4,Familiar-shape_Matched,1,448,anxious,S3
18,18,male,7,4,Stranger-shape_Mismatched,1,607,anxious,S3
18,18,male,7,4,Stranger-shape_Mismatched,1,503,anxious,S3
18,18,male,7,4,Familiar-shape_Mismatched,1,645,anxious,S3
18,18,male,7,4,Familiar-shape_Mismatched,1,761,anxious,S3
18,18,male,7,4,Self-shape_Matched,1,591,anxious,S3
18,18,male,7,4,Self-shape_Mismatched,1,442,anxious,S3
18,18,male,7,4,Self-shape_Mismatched,1,527,anxious,S3
18,18,male,7,4,Self-shape_Matched,1,569,anxious,S3
18,18,male,7,4,Stranger-shape_Matched,1,546,anxious,S3
18,18,male,7,4,Stranger-shape_Matched,0,489,anxious,S3
18,18,male,7,4,Stranger-shape_Mismatched,1,470,anxious,S3
18,18,male,7,4,Familiar-shape_Mismatched,1,666,anxious,S3
18,18,male,7,4,Stranger-shape_Matched,1,669,anxious,S3
18,18,male,7,4,Familiar-shape_Mismatched,0,460,anxious,S3
18,18,male,7,4,Self-shape_Mismatched,1,615,anxious,S3
18,18,male,7,4,Self-shape_Mismatched,1,593,anxious,S3
18,18,male,7,4,Self-shape_Matched,1,611,anxious,S3
18,18,male,7,4,Familiar-shape_Matched,1,537,anxious,S3
18,18,male,7,4,Stranger-shape_Matched,1,395,anxious,S3
18,18,male,7,4,Familiar-shape_Matched,1,584,anxious,S3
18,18,male,7,4,Self-shape_Mismatched,1,584,anxious,S3
18,18,male,7,4,Familiar-shape_Mismatched,1,610,anxious,S3
18,18,male,7,4,Familiar-shape_Mismatched,1,574,anxious,S3
18,18,male,7,4,Self-shape_Matched,1,497,anxious,S3
18,18,male,7,4,Stranger-shape_Mismatched,0,704,anxious,S3
18,18,male,7,4,Stranger-shape_Matched,1,494,anxious,S3
18,18,male,7,4,Familiar-shape_Mismatched,1,565,anxious,S3
18,18,male,7,4,Stranger-shape_Matched,1,517,anxious,S3
18,18,male,7,4,Stranger-shape_Matched,1,526,anxious,S3
18,18,male,7,4,Stranger-shape_Matched,1,448,anxious,S3
18,18,male,7,4,Familiar-shape_Matched,1,487,anxious,S3
18,18,male,7,4,Stranger-shape_Mismatched,1,631,anxious,S3
18,18,male,7,4,Stranger-shape_Mismatched,0,837,anxious,S3
18,18,male,7,4,Self-shape_Matched,1,594,anxious,S3
18,18,male,7,4,Familiar-shape_Mismatched,0,541,anxious,S3
18,18,male,7,4,Self-shape_Matched,1,450,anxious,S3
18,18,male,7,4,Familiar-shape_Matched,1,514,anxious,S3
18,18,male,7,4,Familiar-shape_Matched,1,501,anxious,S3
18,18,male,7,4,Stranger-shape_Mismatched,1,426,anxious,S3
18,18,male,7,4,Familiar-shape_Mismatched,1,582,anxious,S3
18,18,male,7,4,Self-shape_Mismatched,1,614,anxious,S3
18,18,male,7,4,Self-shape_Mismatched,1,711,anxious,S3
18,18,male,7,4,Stranger-shape_Mismatched,1,675,anxious,S3
18,18,male,7,4,Familiar-shape_Mismatched,1,736,anxious,S3
18,18,male,7,4,Self-shape_Matched,1,741,anxious,S3
18,18,male,7,4,Self-shape_Matched,1,555,anxious,S3
18,18,male,7,4,Self-shape_Matched,1,404,anxious,S3
18,18,male,7,4,Familiar-shape_Matched,1,534,anxious,S3
18,18,male,7,4,Familiar-shape_Matched,1,439,anxious,S3
18,18,male,7,4,Self-shape_Matched,1,600,anxious,S3
18,18,male,7,4,Stranger-shape_Matched,1,432,anxious,S3
18,18,male,7,4,Familiar-shape_Mismatched,1,571,anxious,S3
18,18,male,7,4,Familiar-shape_Matched,1,750,anxious,S3
18,18,male,7,4,Self-shape_Mismatched,1,468,anxious,S3
18,18,male,7,4,Familiar-shape_Matched,0,798,anxious,S3
18,18,male,7,4,Self-shape_Matched,1,657,anxious,S3
18,18,male,7,4,Stranger-shape_Mismatched,1,634,anxious,S3
18,18,male,7,4,Stranger-shape_Matched,1,634,anxious,S3
18,18,male,7,4,Stranger-shape_Mismatched,1,701,anxious,S3
18,18,male,7,4,Self-shape_Mismatched,1,630,anxious,S3
18,18,male,7,4,Self-shape_Matched,1,457,anxious,S3
18,18,male,7,4,Familiar-shape_Matched,1,582,anxious,S3
18,18,male,7,4,Self-shape_Matched,1,449,anxious,S3
18,18,male,7,4,Self-shape_Mismatched,1,762,anxious,S3
18,18,male,7,4,Stranger-shape_Matched,1,564,anxious,S3
18,18,male,7,4,Familiar-shape_Mismatched,1,556,anxious,S3
18,18,male,7,4,Familiar-shape_Matched,0,900,anxious,S3
18,18,male,7,4,Stranger-shape_Matched,1,573,anxious,S3
18,18,male,7,4,Self-shape_Mismatched,1,496,anxious,S3
18,18,male,7,4,Stranger-shape_Mismatched,1,545,anxious,S3
18,18,male,7,4,Familiar-shape_Mismatched,1,902,anxious,S3
18,18,male,7,4,Self-shape_Mismatched,1,546,anxious,S3
18,18,male,7,4,Self-shape_Matched,1,478,anxious,S3
18,18,male,7,4,Stranger-shape_Matched,1,584,anxious,S3
18,18,male,7,4,Self-shape_Matched,1,538,anxious,S3
18,18,male,7,4,Stranger-shape_Mismatched,1,544,anxious,S3
18,18,male,7,4,Familiar-shape_Mismatched,1,565,anxious,S3
18,18,male,7,4,Stranger-shape_Mismatched,1,484,anxious,S3
18,18,male,7,4,Stranger-shape_Mismatched,1,563,anxious,S3
18,18,male,7,4,Stranger-shape_Mismatched,1,473,anxious,S3
18,18,male,7,4,Familiar-shape_Matched,1,535,anxious,S3
18,18,male,7,4,Familiar-shape_Mismatched,1,541,anxious,S3
18,18,male,7,4,Self-shape_Matched,1,444,anxious,S3
18,18,male,7,4,Familiar-shape_Matched,1,550,anxious,S3
18,18,male,7,4,Self-shape_Matched,1,511,anxious,S3
18,18,male,7,4,Stranger-shape_Matched,1,764,anxious,S3
18,18,male,7,4,Familiar-shape_Mismatched,1,849,anxious,S3
18,18,male,7,4,Familiar-shape_Matched,1,481,anxious,S3
18,18,male,7,4,Familiar-shape_Mismatched,1,646,anxious,S3
18,18,male,7,4,Stranger-shape_Matched,1,512,anxious,S3
18,18,male,7,4,Familiar-shape_Mismatched,1,683,anxious,S3
18,18,male,7,4,Stranger-shape_Matched,0,514,anxious,S3
18,18,male,7,4,Self-shape_Mismatched,1,642,anxious,S3
18,18,male,7,4,Stranger-shape_Mismatched,1,513,anxious,S3
18,18,male,7,4,Familiar-shape_Mismatched,1,631,anxious,S3
18,18,male,7,4,Self-shape_Matched,1,450,anxious,S3
18,18,male,7,4,Stranger-shape_Matched,1,772,anxious,S3
18,18,male,7,4,Stranger-shape_Matched,1,517,anxious,S3
18,18,male,7,4,Familiar-shape_Matched,1,539,anxious,S3
18,18,male,7,4,Familiar-shape_Mismatched,0,611,anxious,S3
18,18,male,7,4,Familiar-shape_Matched,1,402,anxious,S3
18,18,male,7,4,Stranger-shape_Matched,1,435,anxious,S3
18,18,male,7,4,Familiar-shape_Mismatched,1,454,anxious,S3
18,18,male,7,4,Self-shape_Mismatched,1,657,anxious,S3
18,18,male,7,4,Self-shape_Mismatched,1,835,anxious,S3
18,18,male,7,4,Familiar-shape_Matched,1,455,anxious,S3
18,18,male,7,4,Familiar-shape_Matched,1,556,anxious,S3
18,18,male,7,4,Familiar-shape_Matched,1,409,anxious,S3
18,18,male,7,4,Familiar-shape_Matched,1,380,anxious,S3
18,18,male,7,4,Self-shape_Mismatched,1,401,anxious,S3
18,18,male,7,4,Self-shape_Mismatched,1,475,anxious,S3
18,18,male,7,4,Self-shape_Mismatched,1,544,anxious,S3
18,18,male,7,4,Stranger-shape_Mismatched,1,590,anxious,S3
18,18,male,7,4,Self-shape_Mismatched,1,705,anxious,S3
18,18,male,7,4,Self-shape_Matched,1,444,anxious,S3
18,18,male,7,4,Self-shape_Mismatched,1,460,anxious,S3
18,18,male,7,4,Stranger-shape_Matched,1,540,anxious,S3
18,18,male,7,4,Self-shape_Matched,1,499,anxious,S3
18,18,male,7,4,Self-shape_Matched,1,547,anxious,S3
18,18,male,7,4,Self-shape_Matched,1,388,anxious,S3
18,18,male,7,4,Familiar-shape_Mismatched,1,567,anxious,S3
18,18,male,7,4,Familiar-shape_Matched,1,536,anxious,S3
18,18,male,7,4,Stranger-shape_Mismatched,1,622,anxious,S3
18,18,male,7,4,Stranger-shape_Mismatched,1,675,anxious,S3
18,18,male,7,4,Self-shape_Mismatched,1,617,anxious,S3
18,18,male,7,4,Familiar-shape_Mismatched,1,483,anxious,S3
18,18,male,7,4,Stranger-shape_Matched,1,430,anxious,S3
18,18,male,7,4,Stranger-shape_Mismatched,1,511,anxious,S3
18,18,male,7,4,Self-shape_Matched,1,479,anxious,S3
21,20,female,6,3,Familiar-shape_Matched,0,937,anxious,S3
21,20,female,6,3,Familiar-shape_Matched,1,558,anxious,S3
21,20,female,6,3,Familiar-shape_Mismatched,1,595,anxious,S3
21,20,female,6,3,Self-shape_Matched,1,527,anxious,S3
21,20,female,6,3,Stranger-shape_Mismatched,1,612,anxious,S3
21,20,female,6,3,Stranger-shape_Matched,1,585,anxious,S3
21,20,female,6,3,Familiar-shape_Matched,1,578,anxious,S3
21,20,female,6,3,Stranger-shape_Mismatched,1,599,anxious,S3
21,20,female,6,3,Self-shape_Mismatched,1,575,anxious,S3
21,20,female,6,3,Familiar-shape_Mismatched,1,769,anxious,S3
21,20,female,6,3,Self-shape_Mismatched,1,597,anxious,S3
21,20,female,6,3,Stranger-shape_Mismatched,1,584,anxious,S3
21,20,female,6,3,Self-shape_Matched,1,515,anxious,S3
21,20,female,6,3,Stranger-shape_Matched,1,560,anxious,S3
21,20,female,6,3,Self-shape_Mismatched,1,587,anxious,S3
21,20,female,6,3,Stranger-shape_Matched,1,620,anxious,S3
21,20,female,6,3,Familiar-shape_Mismatched,1,684,anxious,S3
21,20,female,6,3,Stranger-shape_Matched,1,545,anxious,S3
21,20,female,6,3,Self-shape_Matched,1,480,anxious,S3
21,20,female,6,3,Stranger-shape_Matched,1,591,anxious,S3
21,20,female,6,3,Stranger-shape_Mismatched,1,962,anxious,S3
21,20,female,6,3,Stranger-shape_Matched,1,461,anxious,S3
21,20,female,6,3,Self-shape_Mismatched,1,530,anxious,S3
21,20,female,6,3,Self-shape_Matched,1,446,anxious,S3
21,20,female,6,3,Self-shape_Matched,1,396,anxious,S3
21,20,female,6,3,Familiar-shape_Matched,0,945,anxious,S3
21,20,female,6,3,Familiar-shape_Mismatched,1,663,anxious,S3
21,20,female,6,3,Familiar-shape_Mismatched,1,576,anxious,S3
21,20,female,6,3,Familiar-shape_Matched,1,767,anxious,S3
21,20,female,6,3,Stranger-shape_Matched,1,497,anxious,S3
21,20,female,6,3,Self-shape_Mismatched,1,577,anxious,S3
21,20,female,6,3,Familiar-shape_Matched,0,737,anxious,S3
21,20,female,6,3,Stranger-shape_Mismatched,1,683,anxious,S3
21,20,female,6,3,Stranger-shape_Mismatched,1,590,anxious,S3
21,20,female,6,3,Stranger-shape_Mismatched,0,795,anxious,S3
21,20,female,6,3,Familiar-shape_Matched,1,863,anxious,S3
21,20,female,6,3,Self-shape_Mismatched,1,718,anxious,S3
21,20,female,6,3,Stranger-shape_Mismatched,1,639,anxious,S3
21,20,female,6,3,Self-shape_Mismatched,1,611,anxious,S3
21,20,female,6,3,Self-shape_Matched,1,696,anxious,S3
21,20,female,6,3,Familiar-shape_Matched,1,660,anxious,S3
21,20,female,6,3,Familiar-shape_Mismatched,1,562,anxious,S3
21,20,female,6,3,Familiar-shape_Mismatched,1,819,anxious,S3
21,20,female,6,3,Self-shape_Matched,1,575,anxious,S3
21,20,female,6,3,Familiar-shape_Matched,1,657,anxious,S3
21,20,female,6,3,Stranger-shape_Matched,1,569,anxious,S3
21,20,female,6,3,Self-shape_Mismatched,1,587,anxious,S3
21,20,female,6,3,Stranger-shape_Matched,1,594,anxious,S3
21,20,female,6,3,Familiar-shape_Mismatched,0,627,anxious,S3
21,20,female,6,3,Stranger-shape_Mismatched,0,698,anxious,S3
21,20,female,6,3,Familiar-shape_Matched,1,824,anxious,S3
21,20,female,6,3,Self-shape_Mismatched,1,696,anxious,S3
21,20,female,6,3,Self-shape_Mismatched,1,628,anxious,S3
21,20,female,6,3,Familiar-shape_Mismatched,1,873,anxious,S3
21,20,female,6,3,Stranger-shape_Mismatched,1,687,anxious,S3
21,20,female,6,3,Self-shape_Matched,1,505,anxious,S3
21,20,female,6,3,Familiar-shape_Mismatched,1,661,anxious,S3
21,20,female,6,3,Self-shape_Matched,1,447,anxious,S3
21,20,female,6,3,Self-shape_Mismatched,1,554,anxious,S3
21,20,female,6,3,Self-shape_Matched,1,592,anxious,S3
21,20,female,6,3,Familiar-shape_Matched,1,715,anxious,S3
21,20,female,6,3,Stranger-shape_Matched,1,484,anxious,S3
21,20,female,6,3,Stranger-shape_Matched,1,585,anxious,S3
21,20,female,6,3,Familiar-shape_Mismatched,1,672,anxious,S3
21,20,female,6,3,Self-shape_Matched,1,477,anxious,S3
21,20,female,6,3,Self-shape_Matched,1,544,anxious,S3
21,20,female,6,3,Familiar-shape_Matched,1,543,anxious,S3
21,20,female,6,3,Self-shape_Mismatched,1,600,anxious,S3
21,20,female,6,3,Familiar-shape_Mismatched,1,667,anxious,S3
21,20,female,6,3,Stranger-shape_Mismatched,1,606,anxious,S3
21,20,female,6,3,Stranger-shape_Mismatched,1,691,anxious,S3
21,20,female,6,3,Stranger-shape_Matched,1,446,anxious,S3
21,20,female,6,3,Self-shape_Matched,1,449,anxious,S3
21,20,female,6,3,Stranger-shape_Matched,1,511,anxious,S3
21,20,female,6,3,Self-shape_Mismatched,1,583,anxious,S3
21,20,female,6,3,Familiar-shape_Mismatched,1,638,anxious,S3
21,20,female,6,3,Stranger-shape_Mismatched,1,589,anxious,S3
21,20,female,6,3,Self-shape_Mismatched,1,484,anxious,S3
21,20,female,6,3,Familiar-shape_Matched,1,595,anxious,S3
21,20,female,6,3,Stranger-shape_Matched,1,466,anxious,S3
21,20,female,6,3,Familiar-shape_Matched,1,587,anxious,S3
21,20,female,6,3,Self-shape_Mismatched,1,558,anxious,S3
21,20,female,6,3,Stranger-shape_Matched,1,477,anxious,S3
21,20,female,6,3,Self-shape_Matched,1,372,anxious,S3
21,20,female,6,3,Stranger-shape_Mismatched,0,633,anxious,S3
21,20,female,6,3,Familiar-shape_Matched,1,414,anxious,S3
21,20,female,6,3,Stranger-shape_Matched,1,451,anxious,S3
21,20,female,6,3,Familiar-shape_Mismatched,1,534,anxious,S3
21,20,female,6,3,Familiar-shape_Matched,1,570,anxious,S3
21,20,female,6,3,Self-shape_Mismatched,1,486,anxious,S3
21,20,female,6,3,Stranger-shape_Matched,1,576,anxious,S3
21,20,female,6,3,Familiar-shape_Mismatched,1,459,anxious,S3
21,20,female,6,3,Self-shape_Matched,1,362,anxious,S3
21,20,female,6,3,Stranger-shape_Matched,1,502,anxious,S3
21,20,female,6,3,Self-shape_Mismatched,0,582,anxious,S3
21,20,female,6,3,Familiar-shape_Mismatched,1,532,anxious,S3
21,20,female,6,3,Familiar-shape_Matched,1,694,anxious,S3
21,20,female,6,3,Stranger-shape_Mismatched,1,839,anxious,S3
21,20,female,6,3,Self-shape_Matched,1,425,anxious,S3
21,20,female,6,3,Self-shape_Mismatched,1,480,anxious,S3
21,20,female,6,3,Self-shape_Matched,1,461,anxious,S3
21,20,female,6,3,Familiar-shape_Matched,1,616,anxious,S3
21,20,female,6,3,Self-shape_Matched,1,435,anxious,S3
21,20,female,6,3,Self-shape_Mismatched,1,521,anxious,S3
21,20,female,6,3,Familiar-shape_Mismatched,1,681,anxious,S3
21,20,female,6,3,Familiar-shape_Mismatched,1,679,anxious,S3
21,20,female,6,3,Self-shape_Mismatched,1,692,anxious,S3
21,20,female,6,3,Self-shape_Matched,1,484,anxious,S3
21,20,female,6,3,Self-shape_Mismatched,1,562,anxious,S3
21,20,female,6,3,Self-shape_Matched,1,543,anxious,S3
21,20,female,6,3,Stranger-shape_Mismatched,1,490,anxious,S3
21,20,female,6,3,Stranger-shape_Mismatched,1,630,anxious,S3
21,20,female,6,3,Familiar-shape_Matched,1,840,anxious,S3
21,20,female,6,3,Stranger-shape_Mismatched,1,641,anxious,S3
21,20,female,6,3,Stranger-shape_Mismatched,1,642,anxious,S3
21,20,female,6,3,Stranger-shape_Matched,1,545,anxious,S3
21,20,female,6,3,Stranger-shape_Matched,1,530,anxious,S3
21,20,female,6,3,Familiar-shape_Matched,1,509,anxious,S3
21,20,female,6,3,Familiar-shape_Mismatched,1,509,anxious,S3
21,20,female,6,3,Familiar-shape_Mismatched,1,655,anxious,S3
21,20,female,6,3,Self-shape_Mismatched,1,527,anxious,S3
21,20,female,6,3,Stranger-shape_Mismatched,1,573,anxious,S3
21,20,female,6,3,Stranger-shape_Matched,1,471,anxious,S3
21,20,female,6,3,Stranger-shape_Mismatched,1,576,anxious,S3
21,20,female,6,3,Self-shape_Matched,1,683,anxious,S3
21,20,female,6,3,Self-shape_Matched,0,407,anxious,S3
21,20,female,6,3,Stranger-shape_Matched,1,428,anxious,S3
21,20,female,6,3,Stranger-shape_Mismatched,1,570,anxious,S3
21,20,female,6,3,Familiar-shape_Mismatched,1,525,anxious,S3
21,20,female,6,3,Self-shape_Matched,1,683,anxious,S3
21,20,female,6,3,Familiar-shape_Matched,1,561,anxious,S3
21,20,female,6,3,Familiar-shape_Matched,1,523,anxious,S3
21,20,female,6,3,Familiar-shape_Mismatched,1,453,anxious,S3
21,20,female,6,3,Familiar-shape_Matched,1,536,anxious,S3
21,20,female,6,3,Self-shape_Mismatched,1,489,anxious,S3
21,20,female,6,3,Self-shape_Mismatched,1,509,anxious,S3
21,20,female,6,3,Familiar-shape_Mismatched,1,485,anxious,S3
21,20,female,6,3,Stranger-shape_Mismatched,1,567,anxious,S3
21,20,female,6,3,Stranger-shape_Matched,1,551,anxious,S3
21,20,female,6,3,Stranger-shape_Mismatched,0,535,anxious,S3
21,20,female,6,3,Stranger-shape_Matched,1,542,anxious,S3
21,20,female,6,3,Familiar-shape_Mismatched,1,588,anxious,S3
21,20,female,6,3,Self-shape_Matched,1,427,anxious,S3
23,20,female,7,3,Self-shape_Mismatched,1,495,anxious,S3
23,20,female,7,3,Familiar-shape_Mismatched,1,564,anxious,S3
23,20,female,7,3,Familiar-shape_Matched,1,473,anxious,S3
23,20,female,7,3,Stranger-shape_Mismatched,1,486,anxious,S3
23,20,female,7,3,Self-shape_Matched,1,295,anxious,S3
23,20,female,7,3,Familiar-shape_Matched,1,444,anxious,S3
23,20,female,7,3,Self-shape_Matched,1,367,anxious,S3
23,20,female,7,3,Self-shape_Matched,1,462,anxious,S3
23,20,female,7,3,Self-shape_Matched,1,305,anxious,S3
23,20,female,7,3,Familiar-shape_Mismatched,1,483,anxious,S3
23,20,female,7,3,Stranger-shape_Mismatched,0,527,anxious,S3
23,20,female,7,3,Stranger-shape_Matched,1,450,anxious,S3
23,20,female,7,3,Familiar-shape_Matched,1,418,anxious,S3
23,20,female,7,3,Familiar-shape_Mismatched,1,420,anxious,S3
23,20,female,7,3,Familiar-shape_Matched,1,389,anxious,S3
23,20,female,7,3,Self-shape_Matched,1,337,anxious,S3
23,20,female,7,3,Self-shape_Mismatched,1,353,anxious,S3
23,20,female,7,3,Stranger-shape_Mismatched,1,562,anxious,S3
23,20,female,7,3,Stranger-shape_Matched,0,438,anxious,S3
23,20,female,7,3,Stranger-shape_Matched,1,405,anxious,S3
23,20,female,7,3,Self-shape_Mismatched,1,467,anxious,S3
23,20,female,7,3,Familiar-shape_Mismatched,1,548,anxious,S3
23,20,female,7,3,Self-shape_Mismatched,0,344,anxious,S3
23,20,female,7,3,Stranger-shape_Matched,0,425,anxious,S3
23,20,female,7,3,Familiar-shape_Mismatched,1,549,anxious,S3
23,20,female,7,3,Familiar-shape_Matched,0,526,anxious,S3
23,20,female,7,3,Self-shape_Matched,1,446,anxious,S3
23,20,female,7,3,Self-shape_Matched,1,400,anxious,S3
23,20,female,7,3,Stranger-shape_Matched,0,346,anxious,S3
23,20,female,7,3,Familiar-shape_Matched,1,432,anxious,S3
23,20,female,7,3,Self-shape_Mismatched,1,399,anxious,S3
23,20,female,7,3,Familiar-shape_Mismatched,1,464,anxious,S3
23,20,female,7,3,Stranger-shape_Matched,0,401,anxious,S3
23,20,female,7,3,Stranger-shape_Mismatched,1,423,anxious,S3
23,20,female,7,3,Familiar-shape_Matched,1,471,anxious,S3
23,20,female,7,3,Self-shape_Mismatched,1,441,anxious,S3
23,20,female,7,3,Stranger-shape_Mismatched,1,479,anxious,S3
23,20,female,7,3,Self-shape_Mismatched,1,397,anxious,S3
23,20,female,7,3,Self-shape_Matched,1,400,anxious,S3
23,20,female,7,3,Stranger-shape_Mismatched,1,534,anxious,S3
23,20,female,7,3,Self-shape_Matched,1,430,anxious,S3
23,20,female,7,3,Familiar-shape_Mismatched,1,353,anxious,S3
23,20,female,7,3,Self-shape_Mismatched,1,461,anxious,S3
23,20,female,7,3,Stranger-shape_Matched,1,523,anxious,S3
23,20,female,7,3,Stranger-shape_Matched,1,529,anxious,S3
23,20,female,7,3,Self-shape_Matched,1,425,anxious,S3
23,20,female,7,3,Self-shape_Mismatched,1,459,anxious,S3
23,20,female,7,3,Familiar-shape_Mismatched,1,532,anxious,S3
23,20,female,7,3,Self-shape_Mismatched,1,493,anxious,S3
23,20,female,7,3,Stranger-shape_Matched,1,680,anxious,S3
23,20,female,7,3,Familiar-shape_Mismatched,1,548,anxious,S3
23,20,female,7,3,Familiar-shape_Matched,0,522,anxious,S3
23,20,female,7,3,Stranger-shape_Matched,0,481,anxious,S3
23,20,female,7,3,Familiar-shape_Matched,1,469,anxious,S3
23,20,female,7,3,Familiar-shape_Mismatched,1,410,anxious,S3
23,20,female,7,3,Self-shape_Matched,1,368,anxious,S3
23,20,female,7,3,Stranger-shape_Mismatched,0,671,anxious,S3
23,20,female,7,3,Self-shape_Matched,1,372,anxious,S3
23,20,female,7,3,Familiar-shape_Matched,1,434,anxious,S3
23,20,female,7,3,Familiar-shape_Mismatched,1,474,anxious,S3
23,20,female,7,3,Stranger-shape_Mismatched,1,520,anxious,S3
23,20,female,7,3,Familiar-shape_Matched,1,381,anxious,S3
23,20,female,7,3,Stranger-shape_Mismatched,1,347,anxious,S3
23,20,female,7,3,Stranger-shape_Matched,1,476,anxious,S3
23,20,female,7,3,Stranger-shape_Mismatched,1,428,anxious,S3
23,20,female,7,3,Self-shape_Mismatched,0,708,anxious,S3
23,20,female,7,3,Stranger-shape_Mismatched,1,618,anxious,S3
23,20,female,7,3,Self-shape_Mismatched,1,834,anxious,S3
23,20,female,7,3,Stranger-shape_Matched,1,470,anxious,S3
23,20,female,7,3,Stranger-shape_Mismatched,1,508,anxious,S3
23,20,female,7,3,Familiar-shape_Mismatched,1,477,anxious,S3
23,20,female,7,3,Familiar-shape_Matched,1,439,anxious,S3
23,20,female,7,3,Stranger-shape_Mismatched,1,716,anxious,S3
23,20,female,7,3,Self-shape_Matched,1,411,anxious,S3
23,20,female,7,3,Self-shape_Matched,1,354,anxious,S3
23,20,female,7,3,Stranger-shape_Matched,0,567,anxious,S3
23,20,female,7,3,Self-shape_Mismatched,1,455,anxious,S3
23,20,female,7,3,Familiar-shape_Matched,1,415,anxious,S3
23,20,female,7,3,Familiar-shape_Mismatched,1,579,anxious,S3
23,20,female,7,3,Stranger-shape_Matched,0,461,anxious,S3
23,20,female,7,3,Stranger-shape_Matched,1,520,anxious,S3
23,20,female,7,3,Stranger-shape_Mismatched,1,522,anxious,S3
23,20,female,7,3,Familiar-shape_Matched,1,431,anxious,S3
23,20,female,7,3,Stranger-shape_Matched,0,423,anxious,S3
23,20,female,7,3,Stranger-shape_Matched,1,370,anxious,S3
23,20,female,7,3,Familiar-shape_Matched,1,465,anxious,S3
23,20,female,7,3,Familiar-shape_Matched,1,312,anxious,S3
23,20,female,7,3,Familiar-shape_Matched,1,319,anxious,S3
23,20,female,7,3,Stranger-shape_Mismatched,1,600,anxious,S3
23,20,female,7,3,Familiar-shape_Mismatched,1,509,anxious,S3
23,20,female,7,3,Self-shape_Matched,1,334,anxious,S3
23,20,female,7,3,Stranger-shape_Mismatched,1,343,anxious,S3
23,20,female,7,3,Familiar-shape_Mismatched,0,532,anxious,S3
23,20,female,7,3,Self-shape_Matched,1,378,anxious,S3
23,20,female,7,3,Stranger-shape_Matched,0,526,anxious,S3
23,20,female,7,3,Self-shape_Matched,1,680,anxious,S3
23,20,female,7,3,Stranger-shape_Mismatched,1,495,anxious,S3
23,20,female,7,3,Stranger-shape_Matched,1,603,anxious,S3
23,20,female,7,3,Self-shape_Matched,1,428,anxious,S3
23,20,female,7,3,Familiar-shape_Matched,1,419,anxious,S3
23,20,female,7,3,Familiar-shape_Mismatched,1,619,anxious,S3
23,20,female,7,3,Stranger-shape_Mismatched,1,676,anxious,S3
23,20,female,7,3,Familiar-shape_Matched,1,424,anxious,S3
23,20,female,7,3,Familiar-shape_Matched,1,523,anxious,S3
23,20,female,7,3,Familiar-shape_Mismatched,1,497,anxious,S3
23,20,female,7,3,Stranger-shape_Matched,1,661,anxious,S3
23,20,female,7,3,Self-shape_Mismatched,1,513,anxious,S3
23,20,female,7,3,Familiar-shape_Mismatched,1,491,anxious,S3
23,20,female,7,3,Familiar-shape_Mismatched,0,477,anxious,S3
23,20,female,7,3,Stranger-shape_Mismatched,1,457,anxious,S3
23,20,female,7,3,Self-shape_Mismatched,1,473,anxious,S3
23,20,female,7,3,Stranger-shape_Matched,1,565,anxious,S3
23,20,female,7,3,Self-shape_Matched,1,402,anxious,S3
23,20,female,7,3,Self-shape_Matched,1,464,anxious,S3
23,20,female,7,3,Self-shape_Mismatched,1,433,anxious,S3
23,20,female,7,3,Stranger-shape_Mismatched,1,703,anxious,S3
23,20,female,7,3,Self-shape_Matched,1,392,anxious,S3
23,20,female,7,3,Familiar-shape_Mismatched,1,579,anxious,S3
23,20,female,7,3,Stranger-shape_Matched,1,485,anxious,S3
23,20,female,7,3,Stranger-shape_Matched,1,340,anxious,S3
23,20,female,7,3,Self-shape_Mismatched,1,453,anxious,S3
23,20,female,7,3,Self-shape_Mismatched,0,638,anxious,S3
23,20,female,7,3,Self-shape_Mismatched,1,509,anxious,S3
23,20,female,7,3,Self-shape_Mismatched,1,478,anxious,S3
23,20,female,7,3,Self-shape_Mismatched,0,643,anxious,S3
23,20,female,7,3,Familiar-shape_Matched,1,572,anxious,S3
23,20,female,7,3,Stranger-shape_Mismatched,1,416,anxious,S3
23,20,female,7,3,Familiar-shape_Mismatched,0,400,anxious,S3
23,20,female,7,3,Self-shape_Mismatched,1,728,anxious,S3
23,20,female,7,3,Stranger-shape_Mismatched,1,599,anxious,S3
23,20,female,7,3,Familiar-shape_Mismatched,1,435,anxious,S3
23,20,female,7,3,Self-shape_Matched,1,452,anxious,S3
23,20,female,7,3,Stranger-shape_Mismatched,1,403,anxious,S3
23,20,female,7,3,Familiar-shape_Mismatched,0,580,anxious,S3
23,20,female,7,3,Familiar-shape_Matched,1,530,anxious,S3
23,20,female,7,3,Stranger-shape_Mismatched,1,455,anxious,S3
23,20,female,7,3,Familiar-shape_Matched,1,604,anxious,S3
23,20,female,7,3,Familiar-shape_Mismatched,1,367,anxious,S3
23,20,female,7,3,Familiar-shape_Matched,1,487,anxious,S3
23,20,female,7,3,Self-shape_Matched,1,520,anxious,S3
23,20,female,7,3,Stranger-shape_Matched,1,619,anxious,S3
23,20,female,7,3,Self-shape_Mismatched,1,493,anxious,S3
23,20,female,7,3,Self-shape_Mismatched,1,498,anxious,S3
23,20,female,7,3,Self-shape_Matched,1,412,anxious,S3
25,19,female,3,2,Familiar-shape_Matched,1,610,anxious,S3
25,19,female,3,2,Stranger-shape_Matched,1,737,anxious,S3
25,19,female,3,2,Stranger-shape_Matched,0,440,anxious,S3
25,19,female,3,2,Self-shape_Mismatched,1,849,anxious,S3
25,19,female,3,2,Familiar-shape_Matched,1,550,anxious,S3
25,19,female,3,2,Familiar-shape_Matched,1,669,anxious,S3
25,19,female,3,2,Familiar-shape_Mismatched,1,611,anxious,S3
25,19,female,3,2,Self-shape_Matched,1,746,anxious,S3
25,19,female,3,2,Familiar-shape_Matched,1,469,anxious,S3
25,19,female,3,2,Stranger-shape_Mismatched,1,593,anxious,S3
25,19,female,3,2,Familiar-shape_Mismatched,0,438,anxious,S3
25,19,female,3,2,Familiar-shape_Mismatched,1,916,anxious,S3
25,19,female,3,2,Stranger-shape_Mismatched,0,583,anxious,S3
25,19,female,3,2,Self-shape_Matched,1,460,anxious,S3
25,19,female,3,2,Self-shape_Matched,1,525,anxious,S3
25,19,female,3,2,Familiar-shape_Mismatched,1,634,anxious,S3
25,19,female,3,2,Familiar-shape_Matched,1,643,anxious,S3
25,19,female,3,2,Self-shape_Matched,1,524,anxious,S3
25,19,female,3,2,Self-shape_Mismatched,0,395,anxious,S3
25,19,female,3,2,Familiar-shape_Matched,1,837,anxious,S3
25,19,female,3,2,Stranger-shape_Mismatched,1,577,anxious,S3
25,19,female,3,2,Familiar-shape_Mismatched,0,921,anxious,S3
25,19,female,3,2,Familiar-shape_Mismatched,1,621,anxious,S3
25,19,female,3,2,Self-shape_Matched,1,728,anxious,S3
25,19,female,3,2,Familiar-shape_Matched,1,529,anxious,S3
25,19,female,3,2,Stranger-shape_Matched,1,668,anxious,S3
25,19,female,3,2,Familiar-shape_Mismatched,1,560,anxious,S3
25,19,female,3,2,Self-shape_Mismatched,1,856,anxious,S3
25,19,female,3,2,Stranger-shape_Mismatched,1,770,anxious,S3
25,19,female,3,2,Self-shape_Mismatched,1,604,anxious,S3
25,19,female,3,2,Self-shape_Mismatched,1,828,anxious,S3
25,19,female,3,2,Self-shape_Mismatched,1,480,anxious,S3
25,19,female,3,2,Self-shape_Matched,1,577,anxious,S3
25,19,female,3,2,Stranger-shape_Matched,0,871,anxious,S3
25,19,female,3,2,Stranger-shape_Mismatched,1,638,anxious,S3
25,19,female,3,2,Stranger-shape_Matched,1,620,anxious,S3
25,19,female,3,2,Familiar-shape_Matched,1,706,anxious,S3
25,19,female,3,2,Familiar-shape_Mismatched,1,579,anxious,S3
25,19,female,3,2,Self-shape_Matched,0,638,anxious,S3
25,19,female,3,2,Stranger-shape_Matched,1,703,anxious,S3
25,19,female,3,2,Familiar-shape_Mismatched,1,731,anxious,S3
25,19,female,3,2,Self-shape_Mismatched,1,685,anxious,S3
25,19,female,3,2,Familiar-shape_Mismatched,1,682,anxious,S3
25,19,female,3,2,Stranger-shape_Mismatched,1,777,anxious,S3
25,19,female,3,2,Stranger-shape_Matched,1,651,anxious,S3
25,19,female,3,2,Self-shape_Mismatched,1,657,anxious,S3
25,19,female,3,2,Familiar-shape_Matched,1,904,anxious,S3
25,19,female,3,2,Stranger-shape_Mismatched,1,641,anxious,S3
25,19,female,3,2,Self-shape_Mismatched,1,671,anxious,S3
25,19,female,3,2,Stranger-shape_Matched,1,764,anxious,S3
25,19,female,3,2,Familiar-shape_Matched,1,672,anxious,S3
25,19,female,3,2,Stranger-shape_Mismatched,1,603,anxious,S3
25,19,female,3,2,Self-shape_Matched,0,825,anxious,S3
25,19,female,3,2,Familiar-shape_Matched,0,696,anxious,S3
25,19,female,3,2,Self-shape_Matched,1,526,anxious,S3
25,19,female,3,2,Stranger-shape_Matched,0,534,anxious,S3
25,19,female,3,2,Self-shape_Matched,1,501,anxious,S3
25,19,female,3,2,Self-shape_Mismatched,1,588,anxious,S3
25,19,female,3,2,Stranger-shape_Mismatched,1,732,anxious,S3
25,19,female,3,2,Stranger-shape_Mismatched,1,574,anxious,S3
25,19,female,3,2,Stranger-shape_Matched,1,869,anxious,S3
25,19,female,3,2,Stranger-shape_Mismatched,1,603,anxious,S3
25,19,female,3,2,Self-shape_Matched,1,580,anxious,S3
25,19,female,3,2,Stranger-shape_Matched,1,778,anxious,S3
25,19,female,3,2,Stranger-shape_Mismatched,1,526,anxious,S3
25,19,female,3,2,Self-shape_Matched,1,593,anxious,S3
25,19,female,3,2,Stranger-shape_Matched,1,751,anxious,S3
25,19,female,3,2,Self-shape_Mismatched,0,794,anxious,S3
25,19,female,3,2,Self-shape_Mismatched,1,648,anxious,S3
25,19,female,3,2,Familiar-shape_Mismatched,1,664,anxious,S3
25,19,female,3,2,Familiar-shape_Matched,1,555,anxious,S3
25,19,female,3,2,Self-shape_Matched,1,391,anxious,S3
25,19,female,3,2,Familiar-shape_Matched,1,454,anxious,S3
25,19,female,3,2,Stranger-shape_Matched,1,326,anxious,S3
25,19,female,3,2,Self-shape_Matched,1,452,anxious,S3
25,19,female,3,2,Familiar-shape_Matched,1,445,anxious,S3
25,19,female,3,2,Familiar-shape_Matched,0,588,anxious,S3
25,19,female,3,2,Self-shape_Mismatched,1,736,anxious,S3
25,19,female,3,2,Self-shape_Matched,1,441,anxious,S3
25,19,female,3,2,Self-shape_Matched,1,537,anxious,S3
25,19,female,3,2,Stranger-shape_Mismatched,1,759,anxious,S3
25,19,female,3,2,Familiar-shape_Matched,1,561,anxious,S3
25,19,female,3,2,Familiar-shape_Matched,1,490,anxious,S3
25,19,female,3,2,Stranger-shape_Mismatched,0,600,anxious,S3
25,19,female,3,2,Self-shape_Mismatched,0,476,anxious,S3
25,19,female,3,2,Familiar-shape_Mismatched,1,747,anxious,S3
25,19,female,3,2,Self-shape_Matched,1,591,anxious,S3
25,19,female,3,2,Self-shape_Mismatched,1,483,anxious,S3
25,19,female,3,2,Self-shape_Mismatched,1,662,anxious,S3
25,19,female,3,2,Familiar-shape_Matched,1,516,anxious,S3
25,19,female,3,2,Stranger-shape_Matched,1,745,anxious,S3
25,19,female,3,2,Stranger-shape_Mismatched,1,523,anxious,S3
25,19,female,3,2,Stranger-shape_Matched,1,590,anxious,S3
25,19,female,3,2,Self-shape_Matched,1,535,anxious,S3
25,19,female,3,2,Self-shape_Matched,1,520,anxious,S3
25,19,female,3,2,Familiar-shape_Mismatched,1,742,anxious,S3
25,19,female,3,2,Stranger-shape_Matched,1,557,anxious,S3
25,19,female,3,2,Stranger-shape_Matched,1,737,anxious,S3
25,19,female,3,2,Familiar-shape_Mismatched,1,533,anxious,S3
25,19,female,3,2,Familiar-shape_Matched,1,544,anxious,S3
25,19,female,3,2,Familiar-shape_Mismatched,1,629,anxious,S3
25,19,female,3,2,Familiar-shape_Mismatched,1,774,anxious,S3
25,19,female,3,2,Self-shape_Mismatched,1,551,anxious,S3
25,19,female,3,2,Stranger-shape_Matched,1,491,anxious,S3
25,19,female,3,2,Familiar-shape_Matched,1,612,anxious,S3
25,19,female,3,2,Self-shape_Matched,1,415,anxious,S3
25,19,female,3,2,Familiar-shape_Mismatched,1,513,anxious,S3
25,19,female,3,2,Self-shape_Matched,1,479,anxious,S3
25,19,female,3,2,Familiar-shape_Matched,1,494,anxious,S3
25,19,female,3,2,Familiar-shape_Mismatched,1,540,anxious,S3
25,19,female,3,2,Stranger-shape_Mismatched,1,561,anxious,S3
25,19,female,3,2,Familiar-shape_Mismatched,1,482,anxious,S3
25,19,female,3,2,Self-shape_Mismatched,1,881,anxious,S3
25,19,female,3,2,Self-shape_Matched,1,441,anxious,S3
25,19,female,3,2,Familiar-shape_Matched,1,678,anxious,S3
25,19,female,3,2,Familiar-shape_Mismatched,1,569,anxious,S3
25,19,female,3,2,Self-shape_Mismatched,1,596,anxious,S3
25,19,female,3,2,Stranger-shape_Mismatched,0,640,anxious,S3
25,19,female,3,2,Stranger-shape_Mismatched,1,648,anxious,S3
25,19,female,3,2,Stranger-shape_Matched,1,671,anxious,S3
25,19,female,3,2,Stranger-shape_Mismatched,1,638,anxious,S3
25,19,female,3,2,Stranger-shape_Matched,1,784,anxious,S3
25,19,female,3,2,Familiar-shape_Matched,1,677,anxious,S3
25,19,female,3,2,Self-shape_Mismatched,0,799,anxious,S3
25,19,female,3,2,Stranger-shape_Matched,0,745,anxious,S3
25,19,female,3,2,Familiar-shape_Mismatched,0,826,anxious,S3
25,19,female,3,2,Stranger-shape_Mismatched,1,690,anxious,S3
25,19,female,3,2,Stranger-shape_Matched,1,611,anxious,S3
25,19,female,3,2,Stranger-shape_Mismatched,1,634,anxious,S3
25,19,female,3,2,Familiar-shape_Mismatched,0,688,anxious,S3
25,19,female,3,2,Self-shape_Mismatched,1,725,anxious,S3
25,19,female,3,2,Stranger-shape_Mismatched,1,689,anxious,S3
25,19,female,3,2,Self-shape_Mismatched,1,893,anxious,S3
25,19,female,3,2,Self-shape_Matched,1,399,anxious,S3
25,19,female,3,2,Stranger-shape_Mismatched,0,578,anxious,S3
25,19,female,3,2,Self-shape_Matched,1,786,anxious,S3
25,19,female,3,2,Stranger-shape_Mismatched,1,489,anxious,S3
25,19,female,3,2,Stranger-shape_Matched,1,805,anxious,S3
25,19,female,3,2,Self-shape_Mismatched,1,650,anxious,S3
25,19,female,3,2,Familiar-shape_Matched,1,900,anxious,S3
25,19,female,3,2,Familiar-shape_Mismatched,1,645,anxious,S3
25,19,female,3,2,Self-shape_Mismatched,1,689,anxious,S3
31,21,female,6,4,Self-shape_Matched,1,552,anxious,S1
31,21,female,6,4,Stranger-shape_Mismatched,1,709,anxious,S1
31,21,female,6,4,Self-shape_Matched,1,391,anxious,S1
31,21,female,6,4,Stranger-shape_Mismatched,1,363,anxious,S1
31,21,female,6,4,Familiar-shape_Mismatched,1,638,anxious,S1
31,21,female,6,4,Familiar-shape_Matched,1,501,anxious,S1
31,21,female,6,4,Familiar-shape_Matched,1,736,anxious,S1
31,21,female,6,4,Familiar-shape_Mismatched,1,452,anxious,S1
31,21,female,6,4,Stranger-shape_Mismatched,1,482,anxious,S1
31,21,female,6,4,Familiar-shape_Matched,1,564,anxious,S1
31,21,female,6,4,Self-shape_Mismatched,0,486,anxious,S1
31,21,female,6,4,Self-shape_Matched,1,568,anxious,S1
31,21,female,6,4,Self-shape_Mismatched,1,457,anxious,S1
31,21,female,6,4,Stranger-shape_Matched,0,534,anxious,S1
31,21,female,6,4,Self-shape_Matched,1,444,anxious,S1
31,21,female,6,4,Stranger-shape_Matched,1,357,anxious,S1
31,21,female,6,4,Stranger-shape_Matched,1,401,anxious,S1
31,21,female,6,4,Self-shape_Matched,1,419,anxious,S1
31,21,female,6,4,Familiar-shape_Mismatched,1,459,anxious,S1
31,21,female,6,4,Self-shape_Mismatched,1,599,anxious,S1
31,21,female,6,4,Familiar-shape_Matched,1,448,anxious,S1
31,21,female,6,4,Self-shape_Matched,1,365,anxious,S1
31,21,female,6,4,Self-shape_Mismatched,1,534,anxious,S1
31,21,female,6,4,Stranger-shape_Mismatched,1,537,anxious,S1
31,21,female,6,4,Familiar-shape_Mismatched,0,496,anxious,S1
31,21,female,6,4,Self-shape_Mismatched,1,516,anxious,S1
31,21,female,6,4,Familiar-shape_Matched,0,543,anxious,S1
31,21,female,6,4,Stranger-shape_Matched,0,489,anxious,S1
31,21,female,6,4,Self-shape_Mismatched,1,573,anxious,S1
31,21,female,6,4,Stranger-shape_Matched,0,481,anxious,S1
31,21,female,6,4,Familiar-shape_Mismatched,1,562,anxious,S1
31,21,female,6,4,Self-shape_Mismatched,0,524,anxious,S1
31,21,female,6,4,Familiar-shape_Matched,1,896,anxious,S1
31,21,female,6,4,Familiar-shape_Matched,1,598,anxious,S1
31,21,female,6,4,Self-shape_Mismatched,1,479,anxious,S1
31,21,female,6,4,Familiar-shape_Mismatched,0,573,anxious,S1
31,21,female,6,4,Stranger-shape_Matched,1,514,anxious,S1
31,21,female,6,4,Stranger-shape_Matched,1,463,anxious,S1
31,21,female,6,4,Self-shape_Mismatched,1,565,anxious,S1
31,21,female,6,4,Stranger-shape_Mismatched,1,621,anxious,S1
31,21,female,6,4,Familiar-shape_Matched,1,565,anxious,S1
