ExperimentName,Subject,Age,hand,Sex,Block,Bed[Block],Procedure[Block],Bed,flankerform,flanker.ACC,flanker.RT,MT4.ACC,MT4.RT,Procedure[Trial],target,flanker,targetform
FL_Personenaufg,1,25,right,female,50,,MT,nn,,,,0,0,MTproc,,,
FL_Personenaufg,1,25,right,female,50,,MT,mm,,,,0,0,MTproc,,,
FL_Personenaufg,1,25,right,female,50,,MT,mn,,,,0,0,MTproc,,,
FL_Personenaufg,1,25,right,female,50,,MT,in,,,,0,223,MTproc,,,
FL_Personenaufg,1,25,right,female,50,,MT,mm,,,,0,240,MTproc,,,
FL_Personenaufg,1,25,right,female,50,,MT,in,,,,0,186,MTproc,,,
FL_Personenaufg,1,25,right,female,50,,MT,mn,,,,1,54,MTproc,,,
FL_Personenaufg,1,25,right,female,50,,MT,nn,,,,0,104,MTproc,,,
FL_Personenaufg,1,25,right,female,50,,MT,im,,,,0,160,MTproc,,,
FL_Personenaufg,1,25,right,female,50,,MT,in,,,,0,238,MTproc,,,
FL_Personenaufg,1,25,right,female,50,,MT,bn,,,,0,0,MTproc,,,
FL_Personenaufg,1,25,right,female,50,,MT,bm,,,,0,0,MTproc,,,
FL_Personenaufg,1,25,right,female,50,,MT,bm,,,,0,0,MTproc,,,
FL_Personenaufg,1,25,right,female,50,,MT,im,,,,0,0,MTproc,,,
FL_Personenaufg,1,25,right,female,50,,MT,bn,,,,1,135,MTproc,,,
FL_Personenaufg,1,25,right,female,50,,MT,nn,,,,0,269,MTproc,,,
FL_Personenaufg,1,25,right,female,50,,MT,nm,,,,0,157,MTproc,,,
FL_Personenaufg,1,25,right,female,50,,MT,nm,,,,1,203,MTproc,,,
FL_Personenaufg,1,25,right,female,50,,MT,nm,,,,0,150,MTproc,,,
FL_Personenaufg,1,25,right,female,50,,MT,mn,,,,0,60,MTproc,,,
FL_Personenaufg,1,25,right,female,50,,MT,im,,,,0,78,MTproc,,,
FL_Personenaufg,1,25,right,female,50,,MT,mm,,,,1,144,MTproc,,,
FL_Personenaufg,1,25,right,female,50,,MT,bn,,,,1,142,MTproc,,,
FL_Personenaufg,1,25,right,female,50,,MT,bm,,,,1,20,MTproc,,,
FL_Personenaufg,1,25,right,female,50,,MT,in,,,,1,143,MTproc,,,
FL_Personenaufg,1,25,right,female,50,,MT,mm,,,,1,181,MTproc,,,
FL_Personenaufg,1,25,right,female,50,,MT,nn,,,,1,210,MTproc,,,
FL_Personenaufg,1,25,right,female,50,,MT,bm,,,,1,230,MTproc,,,
FL_Personenaufg,1,25,right,female,50,,MT,bn,,,,1,264,MTproc,,,
FL_Personenaufg,1,25,right,female,50,,MT,nm,,,,1,192,MTproc,,,
FL_Personenaufg,1,25,right,female,50,,MT,im,,,,0,0,MTproc,,,
FL_Personenaufg,1,25,right,female,50,,MT,bm,,,,0,0,MTproc,,,
FL_Personenaufg,1,25,right,female,50,,MT,mn,,,,1,221,MTproc,,,
FL_Personenaufg,1,25,right,female,50,,MT,mn,,,,0,0,MTproc,,,
FL_Personenaufg,1,25,right,female,50,,MT,nm,,,,0,0,MTproc,,,
FL_Personenaufg,1,25,right,female,50,,MT,bn,,,,1,102,MTproc,,,
FL_Personenaufg,1,25,right,female,50,,MT,bm,,,,1,262,MTproc,,,
FL_Personenaufg,1,25,right,female,50,,MT,in,,,,0,319,MTproc,,,
FL_Personenaufg,1,25,right,female,50,,MT,mn,,,,0,69,MTproc,,,
FL_Personenaufg,1,25,right,female,50,,MT,in,,,,0,0,MTproc,,,
FL_Personenaufg,1,25,right,female,50,,MT,nn,,,,0,0,MTproc,,,
FL_Personenaufg,1,25,right,female,50,,MT,im,,,,0,206,MTproc,,,
FL_Personenaufg,1,25,right,female,50,,MT,nn,,,,0,353,MTproc,,,
FL_Personenaufg,1,25,right,female,50,,MT,mm,,,,0,0,MTproc,,,
FL_Personenaufg,1,25,right,female,50,,MT,nm,,,,0,246,MTproc,,,
FL_Personenaufg,1,25,right,female,50,,MT,mm,,,,0,0,MTproc,,,
FL_Personenaufg,1,25,right,female,50,,MT,im,,,,0,0,MTproc,,,
FL_Personenaufg,1,25,right,female,50,,MT,bn,,,,0,0,MTproc,,,
FL_Personenaufg,1,25,right,female,52,,MT,mm,,,,1,338,MTproc,,,
FL_Personenaufg,1,25,right,female,52,,MT,nm,,,,0,535,MTproc,,,
FL_Personenaufg,1,25,right,female,52,,MT,bn,,,,0,0,MTproc,,,
FL_Personenaufg,1,25,right,female,52,,MT,mn,,,,1,187,MTproc,,,
FL_Personenaufg,1,25,right,female,52,,MT,in,,,,0,175,MTproc,,,
FL_Personenaufg,1,25,right,female,52,,MT,nn,,,,1,132,MTproc,,,
FL_Personenaufg,1,25,right,female,52,,MT,mm,,,,1,227,MTproc,,,
FL_Personenaufg,1,25,right,female,52,,MT,im,,,,0,0,MTproc,,,
FL_Personenaufg,1,25,right,female,52,,MT,bm,,,,0,0,MTproc,,,
FL_Personenaufg,1,25,right,female,52,,MT,nm,,,,0,116,MTproc,,,
FL_Personenaufg,1,25,right,female,52,,MT,mm,,,,1,331,MTproc,,,
FL_Personenaufg,1,25,right,female,52,,MT,bn,,,,1,137,MTproc,,,
FL_Personenaufg,1,25,right,female,52,,MT,in,,,,0,151,MTproc,,,
FL_Personenaufg,1,25,right,female,52,,MT,nn,,,,1,133,MTproc,,,
FL_Personenaufg,1,25,right,female,52,,MT,mn,,,,0,115,MTproc,,,
FL_Personenaufg,1,25,right,female,52,,MT,nn,,,,1,219,MTproc,,,
FL_Personenaufg,1,25,right,female,52,,MT,bn,,,,0,173,MTproc,,,
FL_Personenaufg,1,25,right,female,52,,MT,bm,,,,0,186,MTproc,,,
FL_Personenaufg,1,25,right,female,52,,MT,im,,,,1,238,MTproc,,,
FL_Personenaufg,1,25,right,female,52,,MT,nm,,,,0,7,MTproc,,,
FL_Personenaufg,1,25,right,female,52,,MT,mn,,,,0,3,MTproc,,,
FL_Personenaufg,1,25,right,female,52,,MT,bm,,,,0,144,MTproc,,,
FL_Personenaufg,1,25,right,female,52,,MT,im,,,,1,174,MTproc,,,
FL_Personenaufg,1,25,right,female,52,,MT,in,,,,1,163,MTproc,,,
FL_Personenaufg,1,25,right,female,52,,MT,nn,,,,0,153,MTproc,,,
FL_Personenaufg,1,25,right,female,52,,MT,bn,,,,1,118,MTproc,,,
FL_Personenaufg,1,25,right,female,52,,MT,bm,,,,0,0,MTproc,,,
FL_Personenaufg,1,25,right,female,52,,MT,bn,,,,1,158,MTproc,,,
FL_Personenaufg,1,25,right,female,52,,MT,mn,,,,0,187,MTproc,,,
FL_Personenaufg,1,25,right,female,52,,MT,mn,,,,1,95,MTproc,,,
FL_Personenaufg,1,25,right,female,52,,MT,nm,,,,1,159,MTproc,,,
FL_Personenaufg,1,25,right,female,52,,MT,nm,,,,0,293,MTproc,,,
FL_Personenaufg,1,25,right,female,52,,MT,mm,,,,1,164,MTproc,,,
FL_Personenaufg,1,25,right,female,52,,MT,bm,,,,0,153,MTproc,,,
FL_Personenaufg,1,25,right,female,52,,MT,im,,,,1,222,MTproc,,,
FL_Personenaufg,1,25,right,female,52,,MT,in,,,,0,1057,MTproc,,,
FL_Personenaufg,1,25,right,female,52,,MT,im,,,,0,357,MTproc,,,
FL_Personenaufg,1,25,right,female,52,,MT,in,,,,0,17,MTproc,,,
FL_Personenaufg,1,25,right,female,52,,MT,mm,,,,1,429,MTproc,,,
FL_Personenaufg,1,25,right,female,52,,MT,nn,,,,1,302,MTproc,,,
FL_Personenaufg,1,25,right,female,52,,MT,in,,,,0,0,MTproc,,,
FL_Personenaufg,1,25,right,female,52,,MT,bn,,,,0,0,MTproc,,,
FL_Personenaufg,1,25,right,female,52,,MT,nn,,,,0,0,MTproc,,,
FL_Personenaufg,1,25,right,female,52,,MT,mm,,,,0,0,MTproc,,,
FL_Personenaufg,1,25,right,female,52,,MT,im,,,,0,0,MTproc,,,
FL_Personenaufg,1,25,right,female,52,,MT,bm,,,,0,0,MTproc,,,
FL_Personenaufg,1,25,right,female,52,,MT,mn,,,,0,188,MTproc,,,
FL_Personenaufg,1,25,right,female,52,,MT,nm,,,,0,312,MTproc,,,
FL_Personenaufg,1,25,right,female,54,,MT,bn,,,,0,0,MTproc,,,
FL_Personenaufg,1,25,right,female,54,,MT,mn,,,,1,1057,MTproc,,,
FL_Personenaufg,1,25,right,female,54,,MT,nm,,,,0,85,MTproc,,,
FL_Personenaufg,1,25,right,female,54,,MT,mn,,,,0,301,MTproc,,,
FL_Personenaufg,1,25,right,female,54,,MT,nn,,,,0,20,MTproc,,,
FL_Personenaufg,1,25,right,female,54,,MT,nm,,,,0,816,MTproc,,,
FL_Personenaufg,1,25,right,female,54,,MT,bm,,,,1,255,MTproc,,,
FL_Personenaufg,1,25,right,female,54,,MT,bn,,,,0,384,MTproc,,,
FL_Personenaufg,1,25,right,female,54,,MT,mm,,,,1,619,MTproc,,,
FL_Personenaufg,1,25,right,female,54,,MT,in,,,,0,0,MTproc,,,
FL_Personenaufg,1,25,right,female,54,,MT,nn,,,,0,226,MTproc,,,
FL_Personenaufg,1,25,right,female,54,,MT,im,,,,0,0,MTproc,,,
FL_Personenaufg,1,25,right,female,54,,MT,bn,,,,0,0,MTproc,,,
FL_Personenaufg,1,25,right,female,54,,MT,bm,,,,1,189,MTproc,,,
FL_Personenaufg,1,25,right,female,54,,MT,im,,,,0,177,MTproc,,,
FL_Personenaufg,1,25,right,female,54,,MT,in,,,,1,326,MTproc,,,
FL_Personenaufg,1,25,right,female,54,,MT,im,,,,1,52,MTproc,,,
FL_Personenaufg,1,25,right,female,54,,MT,nn,,,,1,222,MTproc,,,
FL_Personenaufg,1,25,right,female,54,,MT,nm,,,,0,0,MTproc,,,
FL_Personenaufg,1,25,right,female,54,,MT,bm,,,,0,104,MTproc,,,
FL_Personenaufg,1,25,right,female,54,,MT,mm,,,,1,256,MTproc,,,
FL_Personenaufg,1,25,right,female,54,,MT,mn,,,,1,209,MTproc,,,
FL_Personenaufg,1,25,right,female,54,,MT,in,,,,0,156,MTproc,,,
FL_Personenaufg,1,25,right,female,54,,MT,mm,,,,0,258,MTproc,,,
FL_Personenaufg,1,25,right,female,54,,MT,mn,,,,0,219,MTproc,,,
FL_Personenaufg,1,25,right,female,54,,MT,im,,,,1,765,MTproc,,,
FL_Personenaufg,1,25,right,female,54,,MT,mm,,,,0,270,MTproc,,,
FL_Personenaufg,1,25,right,female,54,,MT,mn,,,,0,174,MTproc,,,
FL_Personenaufg,1,25,right,female,54,,MT,in,,,,0,594,MTproc,,,
FL_Personenaufg,1,25,right,female,54,,MT,bm,,,,0,188,MTproc,,,
FL_Personenaufg,1,25,right,female,54,,MT,bn,,,,0,160,MTproc,,,
FL_Personenaufg,1,25,right,female,54,,MT,im,,,,0,0,MTproc,,,
FL_Personenaufg,1,25,right,female,54,,MT,bm,,,,0,126,MTproc,,,
FL_Personenaufg,1,25,right,female,54,,MT,bn,,,,0,149,MTproc,,,
FL_Personenaufg,1,25,right,female,54,,MT,bn,,,,1,2,MTproc,,,
FL_Personenaufg,1,25,right,female,54,,MT,mm,,,,1,511,MTproc,,,
FL_Personenaufg,1,25,right,female,54,,MT,nm,,,,0,0,MTproc,,,
FL_Personenaufg,1,25,right,female,54,,MT,mn,,,,0,0,MTproc,,,
FL_Personenaufg,1,25,right,female,54,,MT,in,,,,1,188,MTproc,,,
FL_Personenaufg,1,25,right,female,54,,MT,nn,,,,0,360,MTproc,,,
FL_Personenaufg,1,25,right,female,54,,MT,in,,,,1,188,MTproc,,,
FL_Personenaufg,1,25,right,female,54,,MT,bm,,,,1,184,MTproc,,,
FL_Personenaufg,1,25,right,female,54,,MT,mm,,,,0,164,MTproc,,,
FL_Personenaufg,1,25,right,female,54,,MT,nm,,,,1,218,MTproc,,,
FL_Personenaufg,1,25,right,female,54,,MT,nn,,,,0,204,MTproc,,,
FL_Personenaufg,1,25,right,female,54,,MT,nn,,,,0,1335,MTproc,,,
FL_Personenaufg,1,25,right,female,54,,MT,im,,,,0,0,MTproc,,,
FL_Personenaufg,1,25,right,female,54,,MT,nm,,,,0,0,MTproc,,,
FL_Personenaufg,2,27,right,female,50,,MT,in,,,,1,847,MTproc,,,
FL_Personenaufg,2,27,right,female,50,,MT,nn,,,,0,453,MTproc,,,
FL_Personenaufg,2,27,right,female,50,,MT,im,,,,1,597,MTproc,,,
FL_Personenaufg,2,27,right,female,50,,MT,bn,,,,0,479,MTproc,,,
FL_Personenaufg,2,27,right,female,50,,MT,nm,,,,0,1301,MTproc,,,
FL_Personenaufg,2,27,right,female,50,,MT,nm,,,,1,1021,MTproc,,,
FL_Personenaufg,2,27,right,female,50,,MT,im,,,,1,419,MTproc,,,
FL_Personenaufg,2,27,right,female,50,,MT,bm,,,,0,1020,MTproc,,,
FL_Personenaufg,2,27,right,female,50,,MT,mm,,,,1,914,MTproc,,,
FL_Personenaufg,2,27,right,female,50,,MT,mn,,,,1,837,MTproc,,,
FL_Personenaufg,2,27,right,female,50,,MT,in,,,,1,659,MTproc,,,
FL_Personenaufg,2,27,right,female,50,,MT,nn,,,,0,1457,MTproc,,,
FL_Personenaufg,2,27,right,female,50,,MT,nn,,,,1,1010,MTproc,,,
FL_Personenaufg,2,27,right,female,50,,MT,nm,,,,1,1168,MTproc,,,
FL_Personenaufg,2,27,right,female,50,,MT,mm,,,,1,1095,MTproc,,,
FL_Personenaufg,2,27,right,female,50,,MT,bm,,,,0,0,MTproc,,,
FL_Personenaufg,2,27,right,female,50,,MT,bm,,,,0,1090,MTproc,,,
FL_Personenaufg,2,27,right,female,50,,MT,mm,,,,1,700,MTproc,,,
FL_Personenaufg,2,27,right,female,50,,MT,bn,,,,1,1265,MTproc,,,
FL_Personenaufg,2,27,right,female,50,,MT,bn,,,,1,708,MTproc,,,
FL_Personenaufg,2,27,right,female,50,,MT,mn,,,,1,871,MTproc,,,
FL_Personenaufg,2,27,right,female,50,,MT,im,,,,1,356,MTproc,,,
FL_Personenaufg,2,27,right,female,50,,MT,in,,,,1,544,MTproc,,,
FL_Personenaufg,2,27,right,female,50,,MT,mn,,,,1,876,MTproc,,,
FL_Personenaufg,2,27,right,female,50,,MT,nn,,,,1,736,MTproc,,,
FL_Personenaufg,2,27,right,female,50,,MT,in,,,,1,667,MTproc,,,
FL_Personenaufg,2,27,right,female,50,,MT,mn,,,,1,593,MTproc,,,
FL_Personenaufg,2,27,right,female,50,,MT,bn,,,,0,0,MTproc,,,
FL_Personenaufg,2,27,right,female,50,,MT,nn,,,,1,1219,MTproc,,,
FL_Personenaufg,2,27,right,female,50,,MT,bn,,,,1,695,MTproc,,,
FL_Personenaufg,2,27,right,female,50,,MT,mm,,,,1,571,MTproc,,,
FL_Personenaufg,2,27,right,female,50,,MT,bm,,,,1,813,MTproc,,,
FL_Personenaufg,2,27,right,female,50,,MT,nm,,,,1,1261,MTproc,,,
FL_Personenaufg,2,27,right,female,50,,MT,nn,,,,1,648,MTproc,,,
FL_Personenaufg,2,27,right,female,50,,MT,mm,,,,1,574,MTproc,,,
FL_Personenaufg,2,27,right,female,50,,MT,bm,,,,0,0,MTproc,,,
FL_Personenaufg,2,27,right,female,50,,MT,im,,,,1,689,MTproc,,,
FL_Personenaufg,2,27,right,female,50,,MT,in,,,,1,726,MTproc,,,
FL_Personenaufg,2,27,right,female,50,,MT,bn,,,,1,705,MTproc,,,
FL_Personenaufg,2,27,right,female,50,,MT,mn,,,,0,0,MTproc,,,
FL_Personenaufg,2,27,right,female,50,,MT,im,,,,1,532,MTproc,,,
FL_Personenaufg,2,27,right,female,50,,MT,in,,,,1,528,MTproc,,,
FL_Personenaufg,2,27,right,female,50,,MT,bm,,,,0,0,MTproc,,,
FL_Personenaufg,2,27,right,female,50,,MT,nm,,,,0,965,MTproc,,,
FL_Personenaufg,2,27,right,female,50,,MT,mm,,,,1,1214,MTproc,,,
FL_Personenaufg,2,27,right,female,50,,MT,im,,,,1,571,MTproc,,,
FL_Personenaufg,2,27,right,female,50,,MT,mn,,,,1,661,MTproc,,,
FL_Personenaufg,2,27,right,female,50,,MT,nm,,,,0,0,MTproc,,,
FL_Personenaufg,2,27,right,female,52,,MT,bn,,,,1,701,MTproc,,,
FL_Personenaufg,2,27,right,female,52,,MT,bn,,,,1,825,MTproc,,,
FL_Personenaufg,2,27,right,female,52,,MT,nm,,,,0,0,MTproc,,,
FL_Personenaufg,2,27,right,female,52,,MT,im,,,,1,568,MTproc,,,
FL_Personenaufg,2,27,right,female,52,,MT,in,,,,1,571,MTproc,,,
FL_Personenaufg,2,27,right,female,52,,MT,mm,,,,1,389,MTproc,,,
FL_Personenaufg,2,27,right,female,52,,MT,mn,,,,1,584,MTproc,,,
FL_Personenaufg,2,27,right,female,52,,MT,nn,,,,1,593,MTproc,,,
FL_Personenaufg,2,27,right,female,52,,MT,mn,,,,1,706,MTproc,,,
FL_Personenaufg,2,27,right,female,52,,MT,mn,,,,1,622,MTproc,,,
FL_Personenaufg,2,27,right,female,52,,MT,bm,,,,1,558,MTproc,,,
FL_Personenaufg,2,27,right,female,52,,MT,nm,,,,0,562,MTproc,,,
FL_Personenaufg,2,27,right,female,52,,MT,nn,,,,1,629,MTproc,,,
FL_Personenaufg,2,27,right,female,52,,MT,nn,,,,1,853,MTproc,,,
FL_Personenaufg,2,27,right,female,52,,MT,bm,,,,1,579,MTproc,,,
FL_Personenaufg,2,27,right,female,52,,MT,im,,,,1,677,MTproc,,,
FL_Personenaufg,2,27,right,female,52,,MT,nm,,,,1,587,MTproc,,,
FL_Personenaufg,2,27,right,female,52,,MT,bm,,,,1,692,MTproc,,,
FL_Personenaufg,2,27,right,female,52,,MT,mm,,,,1,553,MTproc,,,
FL_Personenaufg,2,27,right,female,52,,MT,in,,,,1,764,MTproc,,,
FL_Personenaufg,2,27,right,female,52,,MT,in,,,,1,589,MTproc,,,
FL_Personenaufg,2,27,right,female,52,,MT,bn,,,,0,862,MTproc,,,
FL_Personenaufg,2,27,right,female,52,,MT,im,,,,1,548,MTproc,,,
FL_Personenaufg,2,27,right,female,52,,MT,mm,,,,1,688,MTproc,,,
FL_Personenaufg,2,27,right,female,52,,MT,bn,,,,1,1189,MTproc,,,
FL_Personenaufg,2,27,right,female,52,,MT,nm,,,,1,699,MTproc,,,
FL_Personenaufg,2,27,right,female,52,,MT,bm,,,,1,359,MTproc,,,
FL_Personenaufg,2,27,right,female,52,,MT,mm,,,,1,618,MTproc,,,
FL_Personenaufg,2,27,right,female,52,,MT,bn,,,,1,610,MTproc,,,
FL_Personenaufg,2,27,right,female,52,,MT,nm,,,,1,827,MTproc,,,
FL_Personenaufg,2,27,right,female,52,,MT,bm,,,,1,370,MTproc,,,
FL_Personenaufg,2,27,right,female,52,,MT,mm,,,,1,469,MTproc,,,
FL_Personenaufg,2,27,right,female,52,,MT,nm,,,,1,676,MTproc,,,
FL_Personenaufg,2,27,right,female,52,,MT,nn,,,,1,626,MTproc,,,
FL_Personenaufg,2,27,right,female,52,,MT,bm,,,,1,554,MTproc,,,
FL_Personenaufg,2,27,right,female,52,,MT,bn,,,,1,605,MTproc,,,
FL_Personenaufg,2,27,right,female,52,,MT,in,,,,1,662,MTproc,,,
FL_Personenaufg,2,27,right,female,52,,MT,im,,,,1,365,MTproc,,,
FL_Personenaufg,2,27,right,female,52,,MT,im,,,,1,591,MTproc,,,
FL_Personenaufg,2,27,right,female,52,,MT,mn,,,,1,545,MTproc,,,
FL_Personenaufg,2,27,right,female,52,,MT,im,,,,1,501,MTproc,,,
FL_Personenaufg,2,27,right,female,52,,MT,nn,,,,1,634,MTproc,,,
FL_Personenaufg,2,27,right,female,52,,MT,mn,,,,1,593,MTproc,,,
FL_Personenaufg,2,27,right,female,52,,MT,mn,,,,1,707,MTproc,,,
FL_Personenaufg,2,27,right,female,52,,MT,in,,,,1,559,MTproc,,,
FL_Personenaufg,2,27,right,female,52,,MT,nn,,,,1,770,MTproc,,,
FL_Personenaufg,2,27,right,female,52,,MT,mm,,,,1,572,MTproc,,,
FL_Personenaufg,2,27,right,female,52,,MT,in,,,,1,581,MTproc,,,
FL_Personenaufg,2,27,right,female,54,,MT,bm,,,,1,626,MTproc,,,
FL_Personenaufg,2,27,right,female,54,,MT,bm,,,,1,354,MTproc,,,
FL_Personenaufg,2,27,right,female,54,,MT,bn,,,,0,358,MTproc,,,
FL_Personenaufg,2,27,right,female,54,,MT,nm,,,,1,851,MTproc,,,
FL_Personenaufg,2,27,right,female,54,,MT,bm,,,,1,488,MTproc,,,
FL_Personenaufg,2,27,right,female,54,,MT,bn,,,,1,734,MTproc,,,
FL_Personenaufg,2,27,right,female,54,,MT,mm,,,,1,425,MTproc,,,
FL_Personenaufg,2,27,right,female,54,,MT,mn,,,,1,593,MTproc,,,
FL_Personenaufg,2,27,right,female,54,,MT,mm,,,,1,603,MTproc,,,
FL_Personenaufg,2,27,right,female,54,,MT,nm,,,,0,468,MTproc,,,
FL_Personenaufg,2,27,right,female,54,,MT,im,,,,1,395,MTproc,,,
FL_Personenaufg,2,27,right,female,54,,MT,bn,,,,1,613,MTproc,,,
FL_Personenaufg,2,27,right,female,54,,MT,im,,,,1,638,MTproc,,,
FL_Personenaufg,2,27,right,female,54,,MT,nn,,,,0,813,MTproc,,,
FL_Personenaufg,2,27,right,female,54,,MT,in,,,,1,1005,MTproc,,,
FL_Personenaufg,2,27,right,female,54,,MT,nn,,,,1,739,MTproc,,,
FL_Personenaufg,2,27,right,female,54,,MT,im,,,,1,526,MTproc,,,
FL_Personenaufg,2,27,right,female,54,,MT,mn,,,,1,731,MTproc,,,
FL_Personenaufg,2,27,right,female,54,,MT,in,,,,1,597,MTproc,,,
FL_Personenaufg,2,27,right,female,54,,MT,mn,,,,1,1023,MTproc,,,
FL_Personenaufg,2,27,right,female,54,,MT,nn,,,,1,652,MTproc,,,
FL_Personenaufg,2,27,right,female,54,,MT,nm,,,,1,747,MTproc,,,
FL_Personenaufg,2,27,right,female,54,,MT,mm,,,,1,590,MTproc,,,
FL_Personenaufg,2,27,right,female,54,,MT,in,,,,1,519,MTproc,,,
FL_Personenaufg,2,27,right,female,54,,MT,mn,,,,1,692,MTproc,,,
FL_Personenaufg,2,27,right,female,54,,MT,in,,,,0,585,MTproc,,,
FL_Personenaufg,2,27,right,female,54,,MT,bm,,,,1,643,MTproc,,,
FL_Personenaufg,2,27,right,female,54,,MT,nm,,,,1,650,MTproc,,,
FL_Personenaufg,2,27,right,female,54,,MT,im,,,,1,472,MTproc,,,
FL_Personenaufg,2,27,right,female,54,,MT,mm,,,,1,519,MTproc,,,
FL_Personenaufg,2,27,right,female,54,,MT,nm,,,,1,868,MTproc,,,
FL_Personenaufg,2,27,right,female,54,,MT,bn,,,,1,472,MTproc,,,
FL_Personenaufg,2,27,right,female,54,,MT,bm,,,,1,487,MTproc,,,
FL_Personenaufg,2,27,right,female,54,,MT,bn,,,,1,565,MTproc,,,
FL_Personenaufg,2,27,right,female,54,,MT,im,,,,1,528,MTproc,,,
FL_Personenaufg,2,27,right,female,54,,MT,nn,,,,1,660,MTproc,,,
FL_Personenaufg,2,27,right,female,54,,MT,bn,,,,1,539,MTproc,,,
FL_Personenaufg,2,27,right,female,54,,MT,mn,,,,1,622,MTproc,,,
FL_Personenaufg,2,27,right,female,54,,MT,in,,,,1,510,MTproc,,,
FL_Personenaufg,2,27,right,female,54,,MT,mm,,,,1,667,MTproc,,,
FL_Personenaufg,2,27,right,female,54,,MT,mn,,,,1,529,MTproc,,,
FL_Personenaufg,2,27,right,female,54,,MT,im,,,,1,518,MTproc,,,
FL_Personenaufg,2,27,right,female,54,,MT,nn,,,,1,722,MTproc,,,
FL_Personenaufg,2,27,right,female,54,,MT,in,,,,1,494,MTproc,,,
FL_Personenaufg,2,27,right,female,54,,MT,bm,,,,1,508,MTproc,,,
FL_Personenaufg,2,27,right,female,54,,MT,nm,,,,1,642,MTproc,,,
FL_Personenaufg,2,27,right,female,54,,MT,mm,,,,0,369,MTproc,,,
FL_Personenaufg,2,27,right,female,54,,MT,nn,,,,1,724,MTproc,,,
FL_Personenaufg,3,35,right,female,50,,MT,bn,,,,0,1005,MTproc,,,
FL_Personenaufg,3,35,right,female,50,,MT,mm,,,,0,604,MTproc,,,
FL_Personenaufg,3,35,right,female,50,,MT,nm,,,,0,484,MTproc,,,
FL_Personenaufg,3,35,right,female,50,,MT,in,,,,1,315,MTproc,,,
FL_Personenaufg,3,35,right,female,50,,MT,im,,,,0,0,MTproc,,,
FL_Personenaufg,3,35,right,female,50,,MT,mm,,,,1,425,MTproc,,,
FL_Personenaufg,3,35,right,female,50,,MT,nm,,,,1,578,MTproc,,,
FL_Personenaufg,3,35,right,female,50,,MT,mn,,,,0,339,MTproc,,,
FL_Personenaufg,3,35,right,female,50,,MT,mm,,,,1,633,MTproc,,,
FL_Personenaufg,3,35,right,female,50,,MT,bm,,,,1,832,MTproc,,,
FL_Personenaufg,3,35,right,female,50,,MT,im,,,,1,566,MTproc,,,
FL_Personenaufg,3,35,right,female,50,,MT,mn,,,,1,568,MTproc,,,
FL_Personenaufg,3,35,right,female,50,,MT,bn,,,,1,843,MTproc,,,
FL_Personenaufg,3,35,right,female,50,,MT,nn,,,,1,513,MTproc,,,
FL_Personenaufg,3,35,right,female,50,,MT,nn,,,,1,206,MTproc,,,
FL_Personenaufg,3,35,right,female,50,,MT,nn,,,,1,490,MTproc,,,
FL_Personenaufg,3,35,right,female,50,,MT,bn,,,,1,583,MTproc,,,
FL_Personenaufg,3,35,right,female,50,,MT,mn,,,,1,648,MTproc,,,
FL_Personenaufg,3,35,right,female,50,,MT,bm,,,,1,623,MTproc,,,
FL_Personenaufg,3,35,right,female,50,,MT,nm,,,,0,735,MTproc,,,
FL_Personenaufg,3,35,right,female,50,,MT,in,,,,0,794,MTproc,,,
FL_Personenaufg,3,35,right,female,50,,MT,im,,,,1,506,MTproc,,,
FL_Personenaufg,3,35,right,female,50,,MT,bm,,,,1,720,MTproc,,,
FL_Personenaufg,3,35,right,female,50,,MT,in,,,,1,924,MTproc,,,
FL_Personenaufg,3,35,right,female,50,,MT,nn,,,,0,789,MTproc,,,
FL_Personenaufg,3,35,right,female,50,,MT,nn,,,,1,790,MTproc,,,
FL_Personenaufg,3,35,right,female,50,,MT,in,,,,1,774,MTproc,,,
FL_Personenaufg,3,35,right,female,50,,MT,bn,,,,1,791,MTproc,,,
FL_Personenaufg,3,35,right,female,50,,MT,mn,,,,1,656,MTproc,,,
FL_Personenaufg,3,35,right,female,50,,MT,mm,,,,0,790,MTproc,,,
FL_Personenaufg,3,35,right,female,50,,MT,bm,,,,1,966,MTproc,,,
FL_Personenaufg,3,35,right,female,50,,MT,bm,,,,1,870,MTproc,,,
FL_Personenaufg,3,35,right,female,50,,MT,nn,,,,1,699,MTproc,,,
FL_Personenaufg,3,35,right,female,50,,MT,bn,,,,1,655,MTproc,,,
FL_Personenaufg,3,35,right,female,50,,MT,im,,,,1,846,MTproc,,,
FL_Personenaufg,3,35,right,female,50,,MT,mn,,,,1,876,MTproc,,,
FL_Personenaufg,3,35,right,female,50,,MT,mn,,,,1,760,MTproc,,,
FL_Personenaufg,3,35,right,female,50,,MT,nm,,,,1,938,MTproc,,,
FL_Personenaufg,3,35,right,female,50,,MT,im,,,,1,668,MTproc,,,
FL_Personenaufg,3,35,right,female,50,,MT,in,,,,0,688,MTproc,,,
FL_Personenaufg,3,35,right,female,50,,MT,bn,,,,1,645,MTproc,,,
FL_Personenaufg,3,35,right,female,50,,MT,mm,,,,1,637,MTproc,,,
FL_Personenaufg,3,35,right,female,50,,MT,im,,,,1,700,MTproc,,,
FL_Personenaufg,3,35,right,female,50,,MT,nm,,,,0,632,MTproc,,,
FL_Personenaufg,3,35,right,female,50,,MT,mm,,,,1,648,MTproc,,,
FL_Personenaufg,3,35,right,female,50,,MT,nm,,,,0,687,MTproc,,,
FL_Personenaufg,3,35,right,female,50,,MT,in,,,,0,803,MTproc,,,
FL_Personenaufg,3,35,right,female,50,,MT,bm,,,,0,746,MTproc,,,
FL_Personenaufg,3,35,right,female,52,,MT,bn,,,,0,954,MTproc,,,
FL_Personenaufg,3,35,right,female,52,,MT,nn,,,,1,651,MTproc,,,
FL_Personenaufg,3,35,right,female,52,,MT,bm,,,,0,754,MTproc,,,
FL_Personenaufg,3,35,right,female,52,,MT,mn,,,,1,795,MTproc,,,
FL_Personenaufg,3,35,right,female,52,,MT,nm,,,,0,619,MTproc,,,
FL_Personenaufg,3,35,right,female,52,,MT,nm,,,,1,531,MTproc,,,
FL_Personenaufg,3,35,right,female,52,,MT,bn,,,,1,1136,MTproc,,,
FL_Personenaufg,3,35,right,female,52,,MT,nn,,,,1,520,MTproc,,,
FL_Personenaufg,3,35,right,female,52,,MT,bm,,,,1,749,MTproc,,,
FL_Personenaufg,3,35,right,female,52,,MT,im,,,,0,687,MTproc,,,
FL_Personenaufg,3,35,right,female,52,,MT,mn,,,,0,636,MTproc,,,
FL_Personenaufg,3,35,right,female,52,,MT,in,,,,0,475,MTproc,,,
FL_Personenaufg,3,35,right,female,52,,MT,mn,,,,0,0,MTproc,,,
FL_Personenaufg,3,35,right,female,52,,MT,nm,,,,1,281,MTproc,,,
FL_Personenaufg,3,35,right,female,52,,MT,bn,,,,0,0,MTproc,,,
FL_Personenaufg,3,35,right,female,52,,MT,in,,,,1,737,MTproc,,,
FL_Personenaufg,3,35,right,female,52,,MT,in,,,,1,723,MTproc,,,
FL_Personenaufg,3,35,right,female,52,,MT,im,,,,1,519,MTproc,,,
FL_Personenaufg,3,35,right,female,52,,MT,bm,,,,0,986,MTproc,,,
FL_Personenaufg,3,35,right,female,52,,MT,mm,,,,1,650,MTproc,,,
FL_Personenaufg,3,35,right,female,52,,MT,im,,,,1,496,MTproc,,,
FL_Personenaufg,3,35,right,female,52,,MT,mm,,,,0,766,MTproc,,,
FL_Personenaufg,3,35,right,female,52,,MT,nn,,,,0,0,MTproc,,,
FL_Personenaufg,3,35,right,female,52,,MT,mm,,,,1,751,MTproc,,,
FL_Personenaufg,3,35,right,female,52,,MT,nn,,,,1,666,MTproc,,,
FL_Personenaufg,3,35,right,female,52,,MT,im,,,,1,608,MTproc,,,
FL_Personenaufg,3,35,right,female,52,,MT,nn,,,,1,880,MTproc,,,
FL_Personenaufg,3,35,right,female,52,,MT,mn,,,,1,525,MTproc,,,
FL_Personenaufg,3,35,right,female,52,,MT,bn,,,,1,609,MTproc,,,
FL_Personenaufg,3,35,right,female,52,,MT,bn,,,,1,730,MTproc,,,
FL_Personenaufg,3,35,right,female,52,,MT,in,,,,0,550,MTproc,,,
FL_Personenaufg,3,35,right,female,52,,MT,mn,,,,0,801,MTproc,,,
FL_Personenaufg,3,35,right,female,52,,MT,nn,,,,0,609,MTproc,,,
FL_Personenaufg,3,35,right,female,52,,MT,bn,,,,1,682,MTproc,,,
FL_Personenaufg,3,35,right,female,52,,MT,in,,,,1,566,MTproc,,,
FL_Personenaufg,3,35,right,female,52,,MT,mn,,,,1,521,MTproc,,,
FL_Personenaufg,3,35,right,female,52,,MT,nm,,,,1,734,MTproc,,,
FL_Personenaufg,3,35,right,female,52,,MT,im,,,,0,609,MTproc,,,
FL_Personenaufg,3,35,right,female,52,,MT,mm,,,,1,457,MTproc,,,
FL_Personenaufg,3,35,right,female,52,,MT,bm,,,,1,873,MTproc,,,
FL_Personenaufg,3,35,right,female,52,,MT,mm,,,,1,550,MTproc,,,
FL_Personenaufg,3,35,right,female,52,,MT,nm,,,,0,649,MTproc,,,
FL_Personenaufg,3,35,right,female,52,,MT,nm,,,,1,606,MTproc,,,
FL_Personenaufg,3,35,right,female,52,,MT,mm,,,,1,471,MTproc,,,
FL_Personenaufg,3,35,right,female,52,,MT,bm,,,,1,542,MTproc,,,
FL_Personenaufg,3,35,right,female,52,,MT,in,,,,0,298,MTproc,,,
FL_Personenaufg,3,35,right,female,52,,MT,im,,,,1,650,MTproc,,,
FL_Personenaufg,3,35,right,female,52,,MT,bm,,,,1,648,MTproc,,,
FL_Personenaufg,3,35,right,female,54,,MT,bn,,,,0,840,MTproc,,,
FL_Personenaufg,3,35,right,female,54,,MT,in,,,,1,550,MTproc,,,
FL_Personenaufg,3,35,right,female,54,,MT,im,,,,1,481,MTproc,,,
FL_Personenaufg,3,35,right,female,54,,MT,bm,,,,1,1064,MTproc,,,
FL_Personenaufg,3,35,right,female,54,,MT,nm,,,,0,404,MTproc,,,
FL_Personenaufg,3,35,right,female,54,,MT,in,,,,0,542,MTproc,,,
FL_Personenaufg,3,35,right,female,54,,MT,bm,,,,1,834,MTproc,,,
FL_Personenaufg,3,35,right,female,54,,MT,mm,,,,1,567,MTproc,,,
FL_Personenaufg,3,35,right,female,54,,MT,nm,,,,0,625,MTproc,,,
FL_Personenaufg,3,35,right,female,54,,MT,bn,,,,0,698,MTproc,,,
FL_Personenaufg,3,35,right,female,54,,MT,nn,,,,1,1014,MTproc,,,
FL_Personenaufg,3,35,right,female,54,,MT,mn,,,,1,572,MTproc,,,
FL_Personenaufg,3,35,right,female,54,,MT,mn,,,,1,751,MTproc,,,
FL_Personenaufg,3,35,right,female,54,,MT,bm,,,,1,728,MTproc,,,
FL_Personenaufg,3,35,right,female,54,,MT,nn,,,,1,611,MTproc,,,
FL_Personenaufg,3,35,right,female,54,,MT,nm,,,,0,580,MTproc,,,
FL_Personenaufg,3,35,right,female,54,,MT,mm,,,,1,870,MTproc,,,
FL_Personenaufg,3,35,right,female,54,,MT,in,,,,1,795,MTproc,,,
FL_Personenaufg,3,35,right,female,54,,MT,bn,,,,1,939,MTproc,,,
FL_Personenaufg,3,35,right,female,54,,MT,nn,,,,1,621,MTproc,,,
FL_Personenaufg,3,35,right,female,54,,MT,im,,,,0,525,MTproc,,,
FL_Personenaufg,3,35,right,female,54,,MT,im,,,,1,705,MTproc,,,
FL_Personenaufg,3,35,right,female,54,,MT,mn,,,,1,949,MTproc,,,
FL_Personenaufg,3,35,right,female,54,,MT,mm,,,,1,630,MTproc,,,
FL_Personenaufg,3,35,right,female,54,,MT,bn,,,,1,933,MTproc,,,
FL_Personenaufg,3,35,right,female,54,,MT,mn,,,,1,688,MTproc,,,
FL_Personenaufg,3,35,right,female,54,,MT,bm,,,,1,741,MTproc,,,
FL_Personenaufg,3,35,right,female,54,,MT,bn,,,,1,527,MTproc,,,
FL_Personenaufg,3,35,right,female,54,,MT,nn,,,,1,868,MTproc,,,
FL_Personenaufg,3,35,right,female,54,,MT,in,,,,0,721,MTproc,,,
FL_Personenaufg,3,35,right,female,54,,MT,bm,,,,1,779,MTproc,,,
FL_Personenaufg,3,35,right,female,54,,MT,mm,,,,1,724,MTproc,,,
FL_Personenaufg,3,35,right,female,54,,MT,im,,,,1,616,MTproc,,,
FL_Personenaufg,3,35,right,female,54,,MT,nm,,,,1,409,MTproc,,,
FL_Personenaufg,3,35,right,female,54,,MT,nm,,,,1,731,MTproc,,,
FL_Personenaufg,3,35,right,female,54,,MT,mm,,,,1,462,MTproc,,,
FL_Personenaufg,3,35,right,female,54,,MT,in,,,,0,286,MTproc,,,
FL_Personenaufg,3,35,right,female,54,,MT,nn,,,,1,853,MTproc,,,
FL_Personenaufg,3,35,right,female,54,,MT,bm,,,,1,595,MTproc,,,
FL_Personenaufg,3,35,right,female,54,,MT,mn,,,,0,635,MTproc,,,
FL_Personenaufg,3,35,right,female,54,,MT,im,,,,1,667,MTproc,,,
FL_Personenaufg,3,35,right,female,54,,MT,bn,,,,0,848,MTproc,,,
FL_Personenaufg,3,35,right,female,54,,MT,mn,,,,1,454,MTproc,,,
FL_Personenaufg,3,35,right,female,54,,MT,nm,,,,0,678,MTproc,,,
FL_Personenaufg,3,35,right,female,54,,MT,im,,,,0,452,MTproc,,,
FL_Personenaufg,3,35,right,female,54,,MT,in,,,,0,444,MTproc,,,
FL_Personenaufg,3,35,right,female,54,,MT,mm,,,,1,564,MTproc,,,
FL_Personenaufg,3,35,right,female,54,,MT,nn,,,,0,614,MTproc,,,
FL_Personenaufg,4,24,left,male,50,,MT,bn,,,,1,952,MTproc,,,
FL_Personenaufg,4,24,left,male,50,,MT,bn,,,,1,1162,MTproc,,,
FL_Personenaufg,4,24,left,male,50,,MT,nn,,,,1,921,MTproc,,,
FL_Personenaufg,4,24,left,male,50,,MT,bn,,,,1,667,MTproc,,,
FL_Personenaufg,4,24,left,male,50,,MT,mm,,,,1,473,MTproc,,,
FL_Personenaufg,4,24,left,male,50,,MT,im,,,,0,0,MTproc,,,
FL_Personenaufg,4,24,left,male,50,,MT,in,,,,1,1088,MTproc,,,
FL_Personenaufg,4,24,left,male,50,,MT,nm,,,,1,1410,MTproc,,,
FL_Personenaufg,4,24,left,male,50,,MT,in,,,,1,1126,MTproc,,,
FL_Personenaufg,4,24,left,male,50,,MT,im,,,,1,815,MTproc,,,
FL_Personenaufg,4,24,left,male,50,,MT,bm,,,,0,0,MTproc,,,
FL_Personenaufg,4,24,left,male,50,,MT,nn,,,,1,694,MTproc,,,
FL_Personenaufg,4,24,left,male,50,,MT,mn,,,,0,955,MTproc,,,
FL_Personenaufg,4,24,left,male,50,,MT,im,,,,1,547,MTproc,,,
FL_Personenaufg,4,24,left,male,50,,MT,mn,,,,1,623,MTproc,,,
FL_Personenaufg,4,24,left,male,50,,MT,mm,,,,1,574,MTproc,,,
FL_Personenaufg,4,24,left,male,50,,MT,mm,,,,1,769,MTproc,,,
FL_Personenaufg,4,24,left,male,50,,MT,bm,,,,0,890,MTproc,,,
FL_Personenaufg,4,24,left,male,50,,MT,mn,,,,1,1102,MTproc,,,
FL_Personenaufg,4,24,left,male,50,,MT,nm,,,,1,1224,MTproc,,,
FL_Personenaufg,4,24,left,male,50,,MT,in,,,,1,636,MTproc,,,
FL_Personenaufg,4,24,left,male,50,,MT,bm,,,,0,0,MTproc,,,
FL_Personenaufg,4,24,left,male,50,,MT,nn,,,,1,906,MTproc,,,
FL_Personenaufg,4,24,left,male,50,,MT,nm,,,,1,901,MTproc,,,
FL_Personenaufg,4,24,left,male,50,,MT,bm,,,,1,1368,MTproc,,,
FL_Personenaufg,4,24,left,male,50,,MT,nn,,,,1,799,MTproc,,,
FL_Personenaufg,4,24,left,male,50,,MT,nn,,,,1,830,MTproc,,,
FL_Personenaufg,4,24,left,male,50,,MT,bn,,,,1,1141,MTproc,,,
FL_Personenaufg,4,24,left,male,50,,MT,in,,,,1,765,MTproc,,,
FL_Personenaufg,4,24,left,male,50,,MT,mn,,,,1,750,MTproc,,,
FL_Personenaufg,4,24,left,male,50,,MT,mn,,,,0,0,MTproc,,,
FL_Personenaufg,4,24,left,male,50,,MT,in,,,,1,760,MTproc,,,
FL_Personenaufg,4,24,left,male,50,,MT,in,,,,1,746,MTproc,,,
FL_Personenaufg,4,24,left,male,50,,MT,nm,,,,1,949,MTproc,,,
FL_Personenaufg,4,24,left,male,50,,MT,mm,,,,1,647,MTproc,,,
FL_Personenaufg,4,24,left,male,50,,MT,bn,,,,1,614,MTproc,,,
FL_Personenaufg,4,24,left,male,50,,MT,nn,,,,1,702,MTproc,,,
FL_Personenaufg,4,24,left,male,50,,MT,im,,,,0,1010,MTproc,,,
FL_Personenaufg,4,24,left,male,50,,MT,mm,,,,1,480,MTproc,,,
FL_Personenaufg,4,24,left,male,50,,MT,nm,,,,0,487,MTproc,,,
FL_Personenaufg,4,24,left,male,50,,MT,im,,,,1,702,MTproc,,,
FL_Personenaufg,4,24,left,male,50,,MT,bm,,,,1,635,MTproc,,,
FL_Personenaufg,4,24,left,male,50,,MT,mn,,,,1,642,MTproc,,,
FL_Personenaufg,4,24,left,male,50,,MT,im,,,,1,697,MTproc,,,
FL_Personenaufg,4,24,left,male,50,,MT,mm,,,,1,398,MTproc,,,
FL_Personenaufg,4,24,left,male,50,,MT,bn,,,,1,647,MTproc,,,
FL_Personenaufg,4,24,left,male,50,,MT,nm,,,,0,678,MTproc,,,
FL_Personenaufg,4,24,left,male,50,,MT,bm,,,,1,1124,MTproc,,,
FL_Personenaufg,4,24,left,male,52,,MT,bn,,,,1,833,MTproc,,,
FL_Personenaufg,4,24,left,male,52,,MT,in,,,,1,863,MTproc,,,
FL_Personenaufg,4,24,left,male,52,,MT,mm,,,,1,645,MTproc,,,
FL_Personenaufg,4,24,left,male,52,,MT,im,,,,1,611,MTproc,,,
FL_Personenaufg,4,24,left,male,52,,MT,im,,,,1,388,MTproc,,,
FL_Personenaufg,4,24,left,male,52,,MT,mm,,,,1,375,MTproc,,,
FL_Personenaufg,4,24,left,male,52,,MT,mn,,,,1,538,MTproc,,,
FL_Personenaufg,4,24,left,male,52,,MT,nn,,,,1,734,MTproc,,,
FL_Personenaufg,4,24,left,male,52,,MT,in,,,,0,1081,MTproc,,,
FL_Personenaufg,4,24,left,male,52,,MT,bm,,,,0,748,MTproc,,,
FL_Personenaufg,4,24,left,male,52,,MT,nm,,,,1,631,MTproc,,,
FL_Personenaufg,4,24,left,male,52,,MT,nn,,,,1,677,MTproc,,,
FL_Personenaufg,4,24,left,male,52,,MT,nm,,,,0,611,MTproc,,,
FL_Personenaufg,4,24,left,male,52,,MT,mn,,,,0,740,MTproc,,,
FL_Personenaufg,4,24,left,male,52,,MT,bm,,,,0,1223,MTproc,,,
FL_Personenaufg,4,24,left,male,52,,MT,in,,,,0,635,MTproc,,,
FL_Personenaufg,4,24,left,male,52,,MT,im,,,,1,426,MTproc,,,
FL_Personenaufg,4,24,left,male,52,,MT,bm,,,,0,724,MTproc,,,
FL_Personenaufg,4,24,left,male,52,,MT,nm,,,,1,1175,MTproc,,,
FL_Personenaufg,4,24,left,male,52,,MT,mm,,,,1,645,MTproc,,,
FL_Personenaufg,4,24,left,male,52,,MT,nn,,,,1,1228,MTproc,,,
FL_Personenaufg,4,24,left,male,52,,MT,bn,,,,1,761,MTproc,,,
FL_Personenaufg,4,24,left,male,52,,MT,bn,,,,1,690,MTproc,,,
FL_Personenaufg,4,24,left,male,52,,MT,mn,,,,1,671,MTproc,,,
FL_Personenaufg,4,24,left,male,52,,MT,nn,,,,1,741,MTproc,,,
FL_Personenaufg,4,24,left,male,52,,MT,mm,,,,1,608,MTproc,,,
FL_Personenaufg,4,24,left,male,52,,MT,mn,,,,1,577,MTproc,,,
FL_Personenaufg,4,24,left,male,52,,MT,bn,,,,1,714,MTproc,,,
FL_Personenaufg,4,24,left,male,52,,MT,nm,,,,1,886,MTproc,,,
FL_Personenaufg,4,24,left,male,52,,MT,bm,,,,1,889,MTproc,,,
FL_Personenaufg,4,24,left,male,52,,MT,nn,,,,1,781,MTproc,,,
FL_Personenaufg,4,24,left,male,52,,MT,nm,,,,1,1062,MTproc,,,
FL_Personenaufg,4,24,left,male,52,,MT,mn,,,,1,826,MTproc,,,
FL_Personenaufg,4,24,left,male,52,,MT,nm,,,,1,1145,MTproc,,,
FL_Personenaufg,4,24,left,male,52,,MT,bn,,,,1,857,MTproc,,,
FL_Personenaufg,4,24,left,male,52,,MT,bm,,,,1,630,MTproc,,,
FL_Personenaufg,4,24,left,male,52,,MT,im,,,,1,805,MTproc,,,
FL_Personenaufg,4,24,left,male,52,,MT,bm,,,,1,981,MTproc,,,
FL_Personenaufg,4,24,left,male,52,,MT,mm,,,,1,533,MTproc,,,
FL_Personenaufg,4,24,left,male,52,,MT,im,,,,1,601,MTproc,,,
FL_Personenaufg,4,24,left,male,52,,MT,im,,,,1,673,MTproc,,,
FL_Personenaufg,4,24,left,male,52,,MT,mm,,,,1,575,MTproc,,,
FL_Personenaufg,4,24,left,male,52,,MT,in,,,,1,658,MTproc,,,
FL_Personenaufg,4,24,left,male,52,,MT,mn,,,,0,855,MTproc,,,
FL_Personenaufg,4,24,left,male,52,,MT,in,,,,1,644,MTproc,,,
FL_Personenaufg,4,24,left,male,52,,MT,in,,,,1,692,MTproc,,,
FL_Personenaufg,4,24,left,male,52,,MT,bn,,,,1,625,MTproc,,,
FL_Personenaufg,4,24,left,male,52,,MT,nn,,,,1,697,MTproc,,,
FL_Personenaufg,4,24,left,male,54,,MT,mm,,,,1,543,MTproc,,,
FL_Personenaufg,4,24,left,male,54,,MT,bn,,,,1,675,MTproc,,,
FL_Personenaufg,4,24,left,male,54,,MT,im,,,,1,544,MTproc,,,
FL_Personenaufg,4,24,left,male,54,,MT,nn,,,,1,1212,MTproc,,,
FL_Personenaufg,4,24,left,male,54,,MT,nm,,,,1,1049,MTproc,,,
FL_Personenaufg,4,24,left,male,54,,MT,mn,,,,1,845,MTproc,,,
FL_Personenaufg,4,24,left,male,54,,MT,nm,,,,1,851,MTproc,,,
FL_Personenaufg,4,24,left,male,54,,MT,mn,,,,0,1088,MTproc,,,
FL_Personenaufg,4,24,left,male,54,,MT,mn,,,,1,755,MTproc,,,
FL_Personenaufg,4,24,left,male,54,,MT,bm,,,,1,948,MTproc,,,
FL_Personenaufg,4,24,left,male,54,,MT,in,,,,1,581,MTproc,,,
FL_Personenaufg,4,24,left,male,54,,MT,bn,,,,0,871,MTproc,,,
FL_Personenaufg,4,24,left,male,54,,MT,im,,,,1,675,MTproc,,,
FL_Personenaufg,4,24,left,male,54,,MT,bm,,,,0,945,MTproc,,,
FL_Personenaufg,4,24,left,male,54,,MT,mm,,,,1,531,MTproc,,,
FL_Personenaufg,4,24,left,male,54,,MT,in,,,,1,767,MTproc,,,
FL_Personenaufg,4,24,left,male,54,,MT,mm,,,,1,544,MTproc,,,
FL_Personenaufg,4,24,left,male,54,,MT,nn,,,,1,963,MTproc,,,
FL_Personenaufg,4,24,left,male,54,,MT,bn,,,,1,1140,MTproc,,,
FL_Personenaufg,4,24,left,male,54,,MT,nm,,,,1,580,MTproc,,,
FL_Personenaufg,4,24,left,male,54,,MT,im,,,,1,542,MTproc,,,
FL_Personenaufg,4,24,left,male,54,,MT,in,,,,1,682,MTproc,,,
FL_Personenaufg,4,24,left,male,54,,MT,bm,,,,1,880,MTproc,,,
FL_Personenaufg,4,24,left,male,54,,MT,nn,,,,1,868,MTproc,,,
FL_Personenaufg,4,24,left,male,54,,MT,bn,,,,1,657,MTproc,,,
FL_Personenaufg,4,24,left,male,54,,MT,mn,,,,0,566,MTproc,,,
FL_Personenaufg,4,24,left,male,54,,MT,nm,,,,0,1169,MTproc,,,
FL_Personenaufg,4,24,left,male,54,,MT,mn,,,,1,680,MTproc,,,
FL_Personenaufg,4,24,left,male,54,,MT,im,,,,1,1110,MTproc,,,
FL_Personenaufg,4,24,left,male,54,,MT,bm,,,,1,704,MTproc,,,
FL_Personenaufg,4,24,left,male,54,,MT,nm,,,,1,604,MTproc,,,
FL_Personenaufg,4,24,left,male,54,,MT,mm,,,,1,469,MTproc,,,
FL_Personenaufg,4,24,left,male,54,,MT,im,,,,1,948,MTproc,,,
FL_Personenaufg,4,24,left,male,54,,MT,in,,,,1,700,MTproc,,,
FL_Personenaufg,4,24,left,male,54,,MT,in,,,,1,912,MTproc,,,
FL_Personenaufg,4,24,left,male,54,,MT,im,,,,0,612,MTproc,,,
FL_Personenaufg,4,24,left,male,54,,MT,bm,,,,1,620,MTproc,,,
FL_Personenaufg,4,24,left,male,54,,MT,bn,,,,1,404,MTproc,,,
FL_Personenaufg,4,24,left,male,54,,MT,nn,,,,1,919,MTproc,,,
FL_Personenaufg,4,24,left,male,54,,MT,mm,,,,1,681,MTproc,,,
FL_Personenaufg,4,24,left,male,54,,MT,in,,,,1,1262,MTproc,,,
FL_Personenaufg,4,24,left,male,54,,MT,bn,,,,1,632,MTproc,,,
FL_Personenaufg,4,24,left,male,54,,MT,bm,,,,0,696,MTproc,,,
FL_Personenaufg,4,24,left,male,54,,MT,nn,,,,1,797,MTproc,,,
FL_Personenaufg,4,24,left,male,54,,MT,mn,,,,1,701,MTproc,,,
FL_Personenaufg,4,24,left,male,54,,MT,mm,,,,1,489,MTproc,,,
FL_Personenaufg,4,24,left,male,54,,MT,nn,,,,1,616,MTproc,,,
FL_Personenaufg,4,24,left,male,54,,MT,nm,,,,1,688,MTproc,,,
FL_Personenaufg._V1,13,24,right,female,50,,MT,nm,,,,1,1209,MTproc,,,
FL_Personenaufg._V1,13,24,right,female,50,,MT,nm,,,,1,479,MTproc,,,
FL_Personenaufg._V1,13,24,right,female,50,,MT,im,,,,0,478,MTproc,,,
FL_Personenaufg._V1,13,24,right,female,50,,MT,mm,,,,0,0,MTproc,,,
FL_Personenaufg._V1,13,24,right,female,50,,MT,nn,,,,0,925,MTproc,,,
FL_Personenaufg._V1,13,24,right,female,50,,MT,bm,,,,0,0,MTproc,,,
FL_Personenaufg._V1,13,24,right,female,50,,MT,mm,,,,0,1454,MTproc,,,
FL_Personenaufg._V1,13,24,right,female,50,,MT,bn,,,,0,960,MTproc,,,
FL_Personenaufg._V1,13,24,right,female,50,,MT,nn,,,,0,0,MTproc,,,
FL_Personenaufg._V1,13,24,right,female,50,,MT,im,,,,1,1384,MTproc,,,
FL_Personenaufg._V1,13,24,right,female,50,,MT,bn,,,,1,1374,MTproc,,,
FL_Personenaufg._V1,13,24,right,female,50,,MT,nm,,,,1,1018,MTproc,,,
FL_Personenaufg._V1,13,24,right,female,50,,MT,mn,,,,0,1104,MTproc,,,
FL_Personenaufg._V1,13,24,right,female,50,,MT,in,,,,1,1298,MTproc,,,
FL_Personenaufg._V1,13,24,right,female,50,,MT,mm,,,,1,1043,MTproc,,,
FL_Personenaufg._V1,13,24,right,female,50,,MT,im,,,,1,872,MTproc,,,
FL_Personenaufg._V1,13,24,right,female,50,,MT,mn,,,,1,1437,MTproc,,,
FL_Personenaufg._V1,13,24,right,female,50,,MT,in,,,,0,0,MTproc,,,
FL_Personenaufg._V1,13,24,right,female,50,,MT,im,,,,1,975,MTproc,,,
FL_Personenaufg._V1,13,24,right,female,50,,MT,bm,,,,1,1151,MTproc,,,
FL_Personenaufg._V1,13,24,right,female,50,,MT,nn,,,,1,958,MTproc,,,
FL_Personenaufg._V1,13,24,right,female,50,,MT,mn,,,,1,1303,MTproc,,,
FL_Personenaufg._V1,13,24,right,female,50,,MT,bn,,,,1,896,MTproc,,,
FL_Personenaufg._V1,13,24,right,female,50,,MT,bm,,,,0,875,MTproc,,,
FL_Personenaufg._V1,13,24,right,female,50,,MT,nm,,,,1,1031,MTproc,,,
FL_Personenaufg._V1,13,24,right,female,50,,MT,mm,,,,0,1085,MTproc,,,
FL_Personenaufg._V1,13,24,right,female,50,,MT,mm,,,,1,1207,MTproc,,,
FL_Personenaufg._V1,13,24,right,female,50,,MT,mm,,,,0,1428,MTproc,,,
FL_Personenaufg._V1,13,24,right,female,50,,MT,bn,,,,0,0,MTproc,,,
FL_Personenaufg._V1,13,24,right,female,50,,MT,bn,,,,1,1200,MTproc,,,
FL_Personenaufg._V1,13,24,right,female,50,,MT,bm,,,,1,1092,MTproc,,,
FL_Personenaufg._V1,13,24,right,female,50,,MT,nm,,,,1,1070,MTproc,,,
FL_Personenaufg._V1,13,24,right,female,50,,MT,nn,,,,1,1234,MTproc,,,
FL_Personenaufg._V1,13,24,right,female,50,,MT,bm,,,,1,1486,MTproc,,,
FL_Personenaufg._V1,13,24,right,female,50,,MT,in,,,,1,1134,MTproc,,,
FL_Personenaufg._V1,13,24,right,female,50,,MT,im,,,,0,687,MTproc,,,
FL_Personenaufg._V1,13,24,right,female,50,,MT,mn,,,,0,1372,MTproc,,,
FL_Personenaufg._V1,13,24,right,female,50,,MT,mn,,,,0,0,MTproc,,,
FL_Personenaufg._V1,13,24,right,female,50,,MT,nm,,,,1,1266,MTproc,,,
FL_Personenaufg._V1,13,24,right,female,50,,MT,im,,,,1,1068,MTproc,,,
FL_Personenaufg._V1,13,24,right,female,50,,MT,im,,,,1,881,MTproc,,,
FL_Personenaufg._V1,13,24,right,female,50,,MT,mn,,,,1,1085,MTproc,,,
FL_Personenaufg._V1,13,24,right,female,50,,MT,nn,,,,0,1272,MTproc,,,
FL_Personenaufg._V1,13,24,right,female,50,,MT,in,,,,1,1145,MTproc,,,
FL_Personenaufg._V1,13,24,right,female,50,,MT,bn,,,,1,1305,MTproc,,,
FL_Personenaufg._V1,13,24,right,female,50,,MT,im,,,,1,826,MTproc,,,
FL_Personenaufg._V1,13,24,right,female,50,,MT,bm,,,,1,1104,MTproc,,,
FL_Personenaufg._V1,13,24,right,female,50,,MT,nn,,,,1,978,MTproc,,,
FL_Personenaufg._V1,13,24,right,female,52,,MT,im,,,,1,1250,MTproc,,,
FL_Personenaufg._V1,13,24,right,female,52,,MT,mm,,,,1,876,MTproc,,,
FL_Personenaufg._V1,13,24,right,female,52,,MT,im,,,,1,777,MTproc,,,
FL_Personenaufg._V1,13,24,right,female,52,,MT,nn,,,,1,866,MTproc,,,
FL_Personenaufg._V1,13,24,right,female,52,,MT,nm,,,,0,1055,MTproc,,,
FL_Personenaufg._V1,13,24,right,female,52,,MT,in,,,,1,899,MTproc,,,
FL_Personenaufg._V1,13,24,right,female,52,,MT,nn,,,,1,959,MTproc,,,
FL_Personenaufg._V1,13,24,right,female,52,,MT,nn,,,,1,792,MTproc,,,
FL_Personenaufg._V1,13,24,right,female,52,,MT,bm,,,,1,951,MTproc,,,
FL_Personenaufg._V1,13,24,right,female,52,,MT,mm,,,,0,1000,MTproc,,,
FL_Personenaufg._V1,13,24,right,female,52,,MT,bn,,,,1,1023,MTproc,,,
FL_Personenaufg._V1,13,24,right,female,52,,MT,mn,,,,1,669,MTproc,,,
FL_Personenaufg._V1,13,24,right,female,52,,MT,nm,,,,0,763,MTproc,,,
FL_Personenaufg._V1,13,24,right,female,52,,MT,mn,,,,1,1117,MTproc,,,
FL_Personenaufg._V1,13,24,right,female,52,,MT,bm,,,,0,0,MTproc,,,
FL_Personenaufg._V1,13,24,right,female,52,,MT,mm,,,,1,1045,MTproc,,,
FL_Personenaufg._V1,13,24,right,female,52,,MT,bm,,,,1,1298,MTproc,,,
FL_Personenaufg._V1,13,24,right,female,52,,MT,im,,,,1,1228,MTproc,,,
FL_Personenaufg._V1,13,24,right,female,52,,MT,im,,,,1,1088,MTproc,,,
FL_Personenaufg._V1,13,24,right,female,52,,MT,bn,,,,0,1331,MTproc,,,
FL_Personenaufg._V1,13,24,right,female,52,,MT,nm,,,,1,1306,MTproc,,,
FL_Personenaufg._V1,13,24,right,female,52,,MT,bn,,,,1,938,MTproc,,,
FL_Personenaufg._V1,13,24,right,female,52,,MT,in,,,,1,843,MTproc,,,
FL_Personenaufg._V1,13,24,right,female,52,,MT,mn,,,,1,922,MTproc,,,
FL_Personenaufg._V1,13,24,right,female,52,,MT,nn,,,,1,844,MTproc,,,
FL_Personenaufg._V1,13,24,right,female,52,,MT,mm,,,,0,970,MTproc,,,
FL_Personenaufg._V1,13,24,right,female,52,,MT,bm,,,,1,1138,MTproc,,,
FL_Personenaufg._V1,13,24,right,female,52,,MT,nm,,,,1,931,MTproc,,,
FL_Personenaufg._V1,13,24,right,female,52,,MT,mm,,,,1,805,MTproc,,,
FL_Personenaufg._V1,13,24,right,female,52,,MT,mn,,,,1,1044,MTproc,,,
FL_Personenaufg._V1,13,24,right,female,52,,MT,bn,,,,1,1329,MTproc,,,
FL_Personenaufg._V1,13,24,right,female,52,,MT,im,,,,1,824,MTproc,,,
FL_Personenaufg._V1,13,24,right,female,52,,MT,bn,,,,1,1143,MTproc,,,
FL_Personenaufg._V1,13,24,right,female,52,,MT,im,,,,1,959,MTproc,,,
FL_Personenaufg._V1,13,24,right,female,52,,MT,mm,,,,1,1256,MTproc,,,
FL_Personenaufg._V1,13,24,right,female,52,,MT,mn,,,,1,1002,MTproc,,,
FL_Personenaufg._V1,13,24,right,female,52,,MT,bn,,,,0,1008,MTproc,,,
FL_Personenaufg._V1,13,24,right,female,52,,MT,nn,,,,0,0,MTproc,,,
FL_Personenaufg._V1,13,24,right,female,52,,MT,nm,,,,1,1119,MTproc,,,
FL_Personenaufg._V1,13,24,right,female,52,,MT,im,,,,1,753,MTproc,,,
FL_Personenaufg._V1,13,24,right,female,52,,MT,im,,,,1,915,MTproc,,,
FL_Personenaufg._V1,13,24,right,female,52,,MT,in,,,,1,886,MTproc,,,
FL_Personenaufg._V1,13,24,right,female,52,,MT,bm,,,,1,1450,MTproc,,,
FL_Personenaufg._V1,13,24,right,female,52,,MT,in,,,,1,1172,MTproc,,,
FL_Personenaufg._V1,13,24,right,female,52,,MT,nm,,,,0,666,MTproc,,,
FL_Personenaufg._V1,13,24,right,female,52,,MT,nn,,,,0,1240,MTproc,,,
FL_Personenaufg._V1,13,24,right,female,52,,MT,mn,,,,1,1428,MTproc,,,
FL_Personenaufg._V1,13,24,right,female,52,,MT,bm,,,,1,1015,MTproc,,,
FL_Personenaufg._V1,13,24,right,female,54,,MT,nm,,,,1,827,MTproc,,,
FL_Personenaufg._V1,13,24,right,female,54,,MT,nn,,,,1,1202,MTproc,,,
FL_Personenaufg._V1,13,24,right,female,54,,MT,im,,,,1,1144,MTproc,,,
FL_Personenaufg._V1,13,24,right,female,54,,MT,im,,,,1,856,MTproc,,,
FL_Personenaufg._V1,13,24,right,female,54,,MT,mn,,,,1,1117,MTproc,,,
FL_Personenaufg._V1,13,24,right,female,54,,MT,mn,,,,1,734,MTproc,,,
FL_Personenaufg._V1,13,24,right,female,54,,MT,bn,,,,1,929,MTproc,,,
FL_Personenaufg._V1,13,24,right,female,54,,MT,bm,,,,1,1291,MTproc,,,
FL_Personenaufg._V1,13,24,right,female,54,,MT,in,,,,1,756,MTproc,,,
FL_Personenaufg._V1,13,24,right,female,54,,MT,mm,,,,1,1494,MTproc,,,
FL_Personenaufg._V1,13,24,right,female,54,,MT,bm,,,,1,846,MTproc,,,
FL_Personenaufg._V1,13,24,right,female,54,,MT,mm,,,,1,1060,MTproc,,,
FL_Personenaufg._V1,13,24,right,female,54,,MT,bn,,,,1,1008,MTproc,,,
FL_Personenaufg._V1,13,24,right,female,54,,MT,in,,,,1,1166,MTproc,,,
FL_Personenaufg._V1,13,24,right,female,54,,MT,nn,,,,1,1149,MTproc,,,
FL_Personenaufg._V1,13,24,right,female,54,,MT,nn,,,,1,766,MTproc,,,
FL_Personenaufg._V1,13,24,right,female,54,,MT,mn,,,,1,847,MTproc,,,
FL_Personenaufg._V1,13,24,right,female,54,,MT,bn,,,,1,949,MTproc,,,
FL_Personenaufg._V1,13,24,right,female,54,,MT,nm,,,,1,838,MTproc,,,
FL_Personenaufg._V1,13,24,right,female,54,,MT,mm,,,,0,996,MTproc,,,
FL_Personenaufg._V1,13,24,right,female,54,,MT,im,,,,0,731,MTproc,,,
FL_Personenaufg._V1,13,24,right,female,54,,MT,im,,,,1,870,MTproc,,,
FL_Personenaufg._V1,13,24,right,female,54,,MT,bm,,,,1,835,MTproc,,,
FL_Personenaufg._V1,13,24,right,female,54,,MT,nm,,,,1,929,MTproc,,,
FL_Personenaufg._V1,13,24,right,female,54,,MT,bn,,,,1,1115,MTproc,,,
FL_Personenaufg._V1,13,24,right,female,54,,MT,mn,,,,1,1045,MTproc,,,
FL_Personenaufg._V1,13,24,right,female,54,,MT,nm,,,,1,913,MTproc,,,
FL_Personenaufg._V1,13,24,right,female,54,,MT,im,,,,1,788,MTproc,,,
FL_Personenaufg._V1,13,24,right,female,54,,MT,in,,,,1,1116,MTproc,,,
FL_Personenaufg._V1,13,24,right,female,54,,MT,nn,,,,1,1158,MTproc,,,
FL_Personenaufg._V1,13,24,right,female,54,,MT,nn,,,,1,901,MTproc,,,
FL_Personenaufg._V1,13,24,right,female,54,,MT,nm,,,,1,1152,MTproc,,,
FL_Personenaufg._V1,13,24,right,female,54,,MT,bn,,,,1,961,MTproc,,,
FL_Personenaufg._V1,13,24,right,female,54,,MT,im,,,,1,856,MTproc,,,
FL_Personenaufg._V1,13,24,right,female,54,,MT,bn,,,,1,1102,MTproc,,,
FL_Personenaufg._V1,13,24,right,female,54,,MT,im,,,,1,751,MTproc,,,
FL_Personenaufg._V1,13,24,right,female,54,,MT,mn,,,,1,945,MTproc,,,
FL_Personenaufg._V1,13,24,right,female,54,,MT,mm,,,,0,1355,MTproc,,,
FL_Personenaufg._V1,13,24,right,female,54,,MT,in,,,,1,737,MTproc,,,
FL_Personenaufg._V1,13,24,right,female,54,,MT,bm,,,,1,972,MTproc,,,
FL_Personenaufg._V1,13,24,right,female,54,,MT,mm,,,,0,1436,MTproc,,,
FL_Personenaufg._V1,13,24,right,female,54,,MT,im,,,,1,838,MTproc,,,
FL_Personenaufg._V1,13,24,right,female,54,,MT,nn,,,,1,708,MTproc,,,
FL_Personenaufg._V1,13,24,right,female,54,,MT,mm,,,,1,768,MTproc,,,
FL_Personenaufg._V1,13,24,right,female,54,,MT,mn,,,,1,1121,MTproc,,,
FL_Personenaufg._V1,13,24,right,female,54,,MT,bm,,,,0,1322,MTproc,,,
FL_Personenaufg._V1,13,24,right,female,54,,MT,bm,,,,0,906,MTproc,,,
FL_Personenaufg._V1,13,24,right,female,54,,MT,nm,,,,0,0,MTproc,,,
FL_Personenaufg._V1,17,22,right,female,50,,MT,im,,,,0,0,MTproc,,,
FL_Personenaufg._V1,17,22,right,female,50,,MT,bn,,,,1,525,MTproc,,,
FL_Personenaufg._V1,17,22,right,female,50,,MT,nn,,,,0,0,MTproc,,,
FL_Personenaufg._V1,17,22,right,female,50,,MT,im,,,,0,849,MTproc,,,
FL_Personenaufg._V1,17,22,right,female,50,,MT,im,,,,1,454,MTproc,,,
FL_Personenaufg._V1,17,22,right,female,50,,MT,bn,,,,1,638,MTproc,,,
FL_Personenaufg._V1,17,22,right,female,50,,MT,mm,,,,1,1037,MTproc,,,
FL_Personenaufg._V1,17,22,right,female,50,,MT,in,,,,0,242,MTproc,,,
FL_Personenaufg._V1,17,22,right,female,50,,MT,mm,,,,0,52,MTproc,,,
FL_Personenaufg._V1,17,22,right,female,50,,MT,nn,,,,0,0,MTproc,,,
FL_Personenaufg._V1,17,22,right,female,50,,MT,nm,,,,1,806,MTproc,,,
FL_Personenaufg._V1,17,22,right,female,50,,MT,bm,,,,1,670,MTproc,,,
FL_Personenaufg._V1,17,22,right,female,50,,MT,im,,,,1,491,MTproc,,,
FL_Personenaufg._V1,17,22,right,female,50,,MT,bm,,,,1,433,MTproc,,,
FL_Personenaufg._V1,17,22,right,female,50,,MT,nm,,,,1,561,MTproc,,,
FL_Personenaufg._V1,17,22,right,female,50,,MT,nm,,,,1,420,MTproc,,,
FL_Personenaufg._V1,17,22,right,female,50,,MT,mm,,,,0,438,MTproc,,,
FL_Personenaufg._V1,17,22,right,female,50,,MT,bm,,,,1,718,MTproc,,,
FL_Personenaufg._V1,17,22,right,female,50,,MT,nn,,,,0,698,MTproc,,,
FL_Personenaufg._V1,17,22,right,female,50,,MT,mn,,,,0,0,MTproc,,,
FL_Personenaufg._V1,17,22,right,female,50,,MT,in,,,,0,0,MTproc,,,
FL_Personenaufg._V1,17,22,right,female,50,,MT,mn,,,,1,903,MTproc,,,
FL_Personenaufg._V1,17,22,right,female,50,,MT,mn,,,,1,1129,MTproc,,,
FL_Personenaufg._V1,17,22,right,female,50,,MT,bn,,,,1,906,MTproc,,,
FL_Personenaufg._V1,17,22,right,female,50,,MT,in,,,,1,1221,MTproc,,,
FL_Personenaufg._V1,17,22,right,female,50,,MT,bn,,,,1,609,MTproc,,,
FL_Personenaufg._V1,17,22,right,female,50,,MT,mn,,,,1,754,MTproc,,,
FL_Personenaufg._V1,17,22,right,female,50,,MT,bm,,,,1,764,MTproc,,,
FL_Personenaufg._V1,17,22,right,female,50,,MT,nm,,,,1,1054,MTproc,,,
FL_Personenaufg._V1,17,22,right,female,50,,MT,mn,,,,1,866,MTproc,,,
FL_Personenaufg._V1,17,22,right,female,50,,MT,mm,,,,1,750,MTproc,,,
FL_Personenaufg._V1,17,22,right,female,50,,MT,im,,,,1,968,MTproc,,,
FL_Personenaufg._V1,17,22,right,female,50,,MT,nm,,,,0,1128,MTproc,,,
FL_Personenaufg._V1,17,22,right,female,50,,MT,bn,,,,1,1225,MTproc,,,
FL_Personenaufg._V1,17,22,right,female,50,,MT,mn,,,,1,941,MTproc,,,
FL_Personenaufg._V1,17,22,right,female,50,,MT,nn,,,,1,911,MTproc,,,
FL_Personenaufg._V1,17,22,right,female,50,,MT,nn,,,,1,882,MTproc,,,
FL_Personenaufg._V1,17,22,right,female,50,,MT,nm,,,,0,838,MTproc,,,
FL_Personenaufg._V1,17,22,right,female,50,,MT,bm,,,,1,660,MTproc,,,
FL_Personenaufg._V1,17,22,right,female,50,,MT,im,,,,1,578,MTproc,,,
FL_Personenaufg._V1,17,22,right,female,50,,MT,bn,,,,1,1028,MTproc,,,
FL_Personenaufg._V1,17,22,right,female,50,,MT,in,,,,1,954,MTproc,,,
FL_Personenaufg._V1,17,22,right,female,50,,MT,im,,,,1,595,MTproc,,,
FL_Personenaufg._V1,17,22,right,female,50,,MT,im,,,,1,964,MTproc,,,
FL_Personenaufg._V1,17,22,right,female,50,,MT,mm,,,,1,901,MTproc,,,
FL_Personenaufg._V1,17,22,right,female,50,,MT,mm,,,,1,625,MTproc,,,
FL_Personenaufg._V1,17,22,right,female,50,,MT,bm,,,,1,753,MTproc,,,
FL_Personenaufg._V1,17,22,right,female,50,,MT,nn,,,,1,963,MTproc,,,
FL_Personenaufg._V1,17,22,right,female,52,,MT,mn,,,,1,1089,MTproc,,,
FL_Personenaufg._V1,17,22,right,female,52,,MT,mm,,,,1,835,MTproc,,,
FL_Personenaufg._V1,17,22,right,female,52,,MT,in,,,,1,881,MTproc,,,
FL_Personenaufg._V1,17,22,right,female,52,,MT,bn,,,,1,1118,MTproc,,,
FL_Personenaufg._V1,17,22,right,female,52,,MT,nm,,,,1,735,MTproc,,,
FL_Personenaufg._V1,17,22,right,female,52,,MT,nm,,,,1,578,MTproc,,,
FL_Personenaufg._V1,17,22,right,female,52,,MT,mn,,,,1,852,MTproc,,,
FL_Personenaufg._V1,17,22,right,female,52,,MT,bm,,,,1,864,MTproc,,,
FL_Personenaufg._V1,17,22,right,female,52,,MT,in,,,,1,805,MTproc,,,
FL_Personenaufg._V1,17,22,right,female,52,,MT,nn,,,,1,893,MTproc,,,
FL_Personenaufg._V1,17,22,right,female,52,,MT,nm,,,,1,649,MTproc,,,
FL_Personenaufg._V1,17,22,right,female,52,,MT,nn,,,,1,887,MTproc,,,
FL_Personenaufg._V1,17,22,right,female,52,,MT,mm,,,,1,755,MTproc,,,
FL_Personenaufg._V1,17,22,right,female,52,,MT,mm,,,,1,669,MTproc,,,
FL_Personenaufg._V1,17,22,right,female,52,,MT,bn,,,,1,907,MTproc,,,
FL_Personenaufg._V1,17,22,right,female,52,,MT,mn,,,,1,1054,MTproc,,,
FL_Personenaufg._V1,17,22,right,female,52,,MT,im,,,,1,921,MTproc,,,
FL_Personenaufg._V1,17,22,right,female,52,,MT,nn,,,,1,939,MTproc,,,
FL_Personenaufg._V1,17,22,right,female,52,,MT,im,,,,1,733,MTproc,,,
FL_Personenaufg._V1,17,22,right,female,52,,MT,im,,,,1,576,MTproc,,,
FL_Personenaufg._V1,17,22,right,female,52,,MT,im,,,,1,570,MTproc,,,
FL_Personenaufg._V1,17,22,right,female,52,,MT,bm,,,,1,885,MTproc,,,
FL_Personenaufg._V1,17,22,right,female,52,,MT,bm,,,,1,696,MTproc,,,
FL_Personenaufg._V1,17,22,right,female,52,,MT,bn,,,,1,701,MTproc,,,
FL_Personenaufg._V1,17,22,right,female,52,,MT,im,,,,1,594,MTproc,,,
FL_Personenaufg._V1,17,22,right,female,52,,MT,nn,,,,1,1202,MTproc,,,
FL_Personenaufg._V1,17,22,right,female,52,,MT,bm,,,,1,664,MTproc,,,
FL_Personenaufg._V1,17,22,right,female,52,,MT,bn,,,,1,1015,MTproc,,,
FL_Personenaufg._V1,17,22,right,female,52,,MT,im,,,,1,773,MTproc,,,
FL_Personenaufg._V1,17,22,right,female,52,,MT,bn,,,,1,990,MTproc,,,
FL_Personenaufg._V1,17,22,right,female,52,,MT,im,,,,1,605,MTproc,,,
FL_Personenaufg._V1,17,22,right,female,52,,MT,nn,,,,1,1006,MTproc,,,
FL_Personenaufg._V1,17,22,right,female,52,,MT,mn,,,,1,933,MTproc,,,
FL_Personenaufg._V1,17,22,right,female,52,,MT,in,,,,1,839,MTproc,,,
FL_Personenaufg._V1,17,22,right,female,52,,MT,mm,,,,1,893,MTproc,,,
FL_Personenaufg._V1,17,22,right,female,52,,MT,mm,,,,1,568,MTproc,,,
FL_Personenaufg._V1,17,22,right,female,52,,MT,im,,,,1,698,MTproc,,,
FL_Personenaufg._V1,17,22,right,female,52,,MT,nm,,,,0,814,MTproc,,,
FL_Personenaufg._V1,17,22,right,female,52,,MT,nn,,,,1,966,MTproc,,,
FL_Personenaufg._V1,17,22,right,female,52,,MT,in,,,,1,678,MTproc,,,
FL_Personenaufg._V1,17,22,right,female,52,,MT,nm,,,,1,748,MTproc,,,
FL_Personenaufg._V1,17,22,right,female,52,,MT,nm,,,,0,670,MTproc,,,
FL_Personenaufg._V1,17,22,right,female,52,,MT,mm,,,,1,612,MTproc,,,
FL_Personenaufg._V1,17,22,right,female,52,,MT,bm,,,,1,693,MTproc,,,
FL_Personenaufg._V1,17,22,right,female,52,,MT,mn,,,,1,825,MTproc,,,
FL_Personenaufg._V1,17,22,right,female,52,,MT,mn,,,,1,696,MTproc,,,
FL_Personenaufg._V1,17,22,right,female,52,,MT,bn,,,,1,925,MTproc,,,
FL_Personenaufg._V1,17,22,right,female,52,,MT,bm,,,,1,647,MTproc,,,
FL_Personenaufg._V1,17,22,right,female,54,,MT,nn,,,,1,1096,MTproc,,,
FL_Personenaufg._V1,17,22,right,female,54,,MT,bn,,,,1,947,MTproc,,,
FL_Personenaufg._V1,17,22,right,female,54,,MT,im,,,,1,548,MTproc,,,
FL_Personenaufg._V1,17,22,right,female,54,,MT,nn,,,,1,880,MTproc,,,
FL_Personenaufg._V1,17,22,right,female,54,,MT,mm,,,,1,869,MTproc,,,
FL_Personenaufg._V1,17,22,right,female,54,,MT,mn,,,,1,673,MTproc,,,
FL_Personenaufg._V1,17,22,right,female,54,,MT,bm,,,,1,711,MTproc,,,
FL_Personenaufg._V1,17,22,right,female,54,,MT,nm,,,,0,603,MTproc,,,
FL_Personenaufg._V1,17,22,right,female,54,,MT,bn,,,,1,1147,MTproc,,,
FL_Personenaufg._V1,17,22,right,female,54,,MT,mn,,,,1,787,MTproc,,,
FL_Personenaufg._V1,17,22,right,female,54,,MT,im,,,,1,524,MTproc,,,
FL_Personenaufg._V1,17,22,right,female,54,,MT,im,,,,1,720,MTproc,,,
FL_Personenaufg._V1,17,22,right,female,54,,MT,mm,,,,1,572,MTproc,,,
FL_Personenaufg._V1,17,22,right,female,54,,MT,nm,,,,1,958,MTproc,,,
FL_Personenaufg._V1,17,22,right,female,54,,MT,nn,,,,1,775,MTproc,,,
FL_Personenaufg._V1,17,22,right,female,54,,MT,in,,,,1,872,MTproc,,,
FL_Personenaufg._V1,17,22,right,female,54,,MT,mm,,,,1,684,MTproc,,,
FL_Personenaufg._V1,17,22,right,female,54,,MT,in,,,,1,624,MTproc,,,
FL_Personenaufg._V1,17,22,right,female,54,,MT,bn,,,,1,800,MTproc,,,
FL_Personenaufg._V1,17,22,right,female,54,,MT,bm,,,,1,824,MTproc,,,
FL_Personenaufg._V1,17,22,right,female,54,,MT,nm,,,,1,975,MTproc,,,
FL_Personenaufg._V1,17,22,right,female,54,,MT,mn,,,,1,575,MTproc,,,
FL_Personenaufg._V1,17,22,right,female,54,,MT,im,,,,1,673,MTproc,,,
FL_Personenaufg._V1,17,22,right,female,54,,MT,bm,,,,1,575,MTproc,,,
FL_Personenaufg._V1,17,22,right,female,54,,MT,im,,,,1,561,MTproc,,,
FL_Personenaufg._V1,17,22,right,female,54,,MT,mm,,,,1,564,MTproc,,,
FL_Personenaufg._V1,17,22,right,female,54,,MT,mm,,,,1,839,MTproc,,,
FL_Personenaufg._V1,17,22,right,female,54,,MT,nn,,,,1,772,MTproc,,,
FL_Personenaufg._V1,17,22,right,female,54,,MT,bm,,,,1,661,MTproc,,,
FL_Personenaufg._V1,17,22,right,female,54,,MT,im,,,,1,660,MTproc,,,
FL_Personenaufg._V1,17,22,right,female,54,,MT,mn,,,,0,954,MTproc,,,
FL_Personenaufg._V1,17,22,right,female,54,,MT,bn,,,,1,1227,MTproc,,,
FL_Personenaufg._V1,17,22,right,female,54,,MT,bm,,,,1,567,MTproc,,,
FL_Personenaufg._V1,17,22,right,female,54,,MT,mm,,,,1,714,MTproc,,,
FL_Personenaufg._V1,17,22,right,female,54,,MT,nm,,,,1,590,MTproc,,,
FL_Personenaufg._V1,17,22,right,female,54,,MT,im,,,,1,520,MTproc,,,
FL_Personenaufg._V1,17,22,right,female,54,,MT,mn,,,,1,589,MTproc,,,
FL_Personenaufg._V1,17,22,right,female,54,,MT,mn,,,,1,581,MTproc,,,
FL_Personenaufg._V1,17,22,right,female,54,,MT,nm,,,,1,655,MTproc,,,
FL_Personenaufg._V1,17,22,right,female,54,,MT,nn,,,,1,605,MTproc,,,
FL_Personenaufg._V1,17,22,right,female,54,,MT,bn,,,,1,798,MTproc,,,
FL_Personenaufg._V1,17,22,right,female,54,,MT,bn,,,,1,751,MTproc,,,
FL_Personenaufg._V1,17,22,right,female,54,,MT,nm,,,,1,649,MTproc,,,
FL_Personenaufg._V1,17,22,right,female,54,,MT,in,,,,1,632,MTproc,,,
FL_Personenaufg._V1,17,22,right,female,54,,MT,nn,,,,1,647,MTproc,,,
FL_Personenaufg._V1,17,22,right,female,54,,MT,im,,,,1,502,MTproc,,,
FL_Personenaufg._V1,17,22,right,female,54,,MT,bm,,,,1,651,MTproc,,,
FL_Personenaufg._V1,17,22,right,female,54,,MT,in,,,,1,545,MTproc,,,
FL_Personenaufg._V1,21,32,right,female,50,,MT,in,,,,0,0,MTproc,,,
FL_Personenaufg._V1,21,32,right,female,50,,MT,mm,,,,1,1305,MTproc,,,
FL_Personenaufg._V1,21,32,right,female,50,,MT,nm,,,,1,1193,MTproc,,,
FL_Personenaufg._V1,21,32,right,female,50,,MT,bm,,,,1,1135,MTproc,,,
FL_Personenaufg._V1,21,32,right,female,50,,MT,nm,,,,1,776,MTproc,,,
FL_Personenaufg._V1,21,32,right,female,50,,MT,in,,,,1,921,MTproc,,,
FL_Personenaufg._V1,21,32,right,female,50,,MT,nm,,,,1,659,MTproc,,,
FL_Personenaufg._V1,21,32,right,female,50,,MT,bn,,,,1,1097,MTproc,,,
FL_Personenaufg._V1,21,32,right,female,50,,MT,mm,,,,1,851,MTproc,,,
FL_Personenaufg._V1,21,32,right,female,50,,MT,im,,,,1,1145,MTproc,,,
FL_Personenaufg._V1,21,32,right,female,50,,MT,bn,,,,1,961,MTproc,,,
FL_Personenaufg._V1,21,32,right,female,50,,MT,bm,,,,0,642,MTproc,,,
FL_Personenaufg._V1,21,32,right,female,50,,MT,im,,,,1,1137,MTproc,,,
FL_Personenaufg._V1,21,32,right,female,50,,MT,nn,,,,1,1081,MTproc,,,
FL_Personenaufg._V1,21,32,right,female,50,,MT,nn,,,,1,723,MTproc,,,
FL_Personenaufg._V1,21,32,right,female,50,,MT,bm,,,,1,975,MTproc,,,
FL_Personenaufg._V1,21,32,right,female,50,,MT,mm,,,,1,639,MTproc,,,
FL_Personenaufg._V1,21,32,right,female,50,,MT,mn,,,,0,638,MTproc,,,
FL_Personenaufg._V1,21,32,right,female,50,,MT,mn,,,,1,685,MTproc,,,
FL_Personenaufg._V1,21,32,right,female,50,,MT,nn,,,,0,1090,MTproc,,,
FL_Personenaufg._V1,21,32,right,female,50,,MT,im,,,,1,813,MTproc,,,
FL_Personenaufg._V1,21,32,right,female,50,,MT,im,,,,1,676,MTproc,,,
FL_Personenaufg._V1,21,32,right,female,50,,MT,mn,,,,1,601,MTproc,,,
FL_Personenaufg._V1,21,32,right,female,50,,MT,bn,,,,1,1034,MTproc,,,
FL_Personenaufg._V1,21,32,right,female,50,,MT,bm,,,,1,551,MTproc,,,
FL_Personenaufg._V1,21,32,right,female,50,,MT,nn,,,,0,794,MTproc,,,
FL_Personenaufg._V1,21,32,right,female,50,,MT,im,,,,1,635,MTproc,,,
FL_Personenaufg._V1,21,32,right,female,50,,MT,mm,,,,1,1066,MTproc,,,
FL_Personenaufg._V1,21,32,right,female,50,,MT,mm,,,,1,702,MTproc,,,
FL_Personenaufg._V1,21,32,right,female,50,,MT,nm,,,,1,913,MTproc,,,
FL_Personenaufg._V1,21,32,right,female,50,,MT,mn,,,,1,1060,MTproc,,,
FL_Personenaufg._V1,21,32,right,female,50,,MT,nm,,,,1,865,MTproc,,,
FL_Personenaufg._V1,21,32,right,female,50,,MT,nm,,,,1,734,MTproc,,,
FL_Personenaufg._V1,21,32,right,female,50,,MT,bn,,,,0,1081,MTproc,,,
FL_Personenaufg._V1,21,32,right,female,50,,MT,mn,,,,0,820,MTproc,,,
FL_Personenaufg._V1,21,32,right,female,50,,MT,im,,,,1,1043,MTproc,,,
FL_Personenaufg._V1,21,32,right,female,50,,MT,im,,,,0,0,MTproc,,,
FL_Personenaufg._V1,21,32,right,female,50,,MT,in,,,,1,727,MTproc,,,
FL_Personenaufg._V1,21,32,right,female,50,,MT,bn,,,,1,898,MTproc,,,
FL_Personenaufg._V1,21,32,right,female,50,,MT,bm,,,,0,1222,MTproc,,,
FL_Personenaufg._V1,21,32,right,female,50,,MT,bm,,,,1,874,MTproc,,,
FL_Personenaufg._V1,21,32,right,female,50,,MT,in,,,,1,775,MTproc,,,
FL_Personenaufg._V1,21,32,right,female,50,,MT,nn,,,,1,960,MTproc,,,
FL_Personenaufg._V1,21,32,right,female,50,,MT,mm,,,,1,944,MTproc,,,
FL_Personenaufg._V1,21,32,right,female,50,,MT,mn,,,,1,761,MTproc,,,
FL_Personenaufg._V1,21,32,right,female,50,,MT,im,,,,1,763,MTproc,,,
FL_Personenaufg._V1,21,32,right,female,50,,MT,nn,,,,1,1357,MTproc,,,
FL_Personenaufg._V1,21,32,right,female,50,,MT,bn,,,,0,1107,MTproc,,,
FL_Personenaufg._V1,21,32,right,female,52,,MT,nn,,,,0,1394,MTproc,,,
FL_Personenaufg._V1,21,32,right,female,52,,MT,bm,,,,1,1215,MTproc,,,
FL_Personenaufg._V1,21,32,right,female,52,,MT,mm,,,,1,700,MTproc,,,
FL_Personenaufg._V1,21,32,right,female,52,,MT,mn,,,,1,817,MTproc,,,
FL_Personenaufg._V1,21,32,right,female,52,,MT,nn,,,,1,1007,MTproc,,,
FL_Personenaufg._V1,21,32,right,female,52,,MT,mn,,,,1,646,MTproc,,,
FL_Personenaufg._V1,21,32,right,female,52,,MT,mm,,,,1,829,MTproc,,,
FL_Personenaufg._V1,21,32,right,female,52,,MT,nm,,,,1,996,MTproc,,,
FL_Personenaufg._V1,21,32,right,female,52,,MT,im,,,,0,891,MTproc,,,
FL_Personenaufg._V1,21,32,right,female,52,,MT,im,,,,1,695,MTproc,,,
FL_Personenaufg._V1,21,32,right,female,52,,MT,nm,,,,1,820,MTproc,,,
FL_Personenaufg._V1,21,32,right,female,52,,MT,bn,,,,0,891,MTproc,,,
FL_Personenaufg._V1,21,32,right,female,52,,MT,nm,,,,1,886,MTproc,,,
FL_Personenaufg._V1,21,32,right,female,52,,MT,bm,,,,1,1409,MTproc,,,
FL_Personenaufg._V1,21,32,right,female,52,,MT,in,,,,1,909,MTproc,,,
FL_Personenaufg._V1,21,32,right,female,52,,MT,nn,,,,1,864,MTproc,,,
FL_Personenaufg._V1,21,32,right,female,52,,MT,mm,,,,1,886,MTproc,,,
FL_Personenaufg._V1,21,32,right,female,52,,MT,bn,,,,1,1129,MTproc,,,
FL_Personenaufg._V1,21,32,right,female,52,,MT,in,,,,1,1082,MTproc,,,
FL_Personenaufg._V1,21,32,right,female,52,,MT,im,,,,1,541,MTproc,,,
FL_Personenaufg._V1,21,32,right,female,52,,MT,im,,,,1,497,MTproc,,,
FL_Personenaufg._V1,21,32,right,female,52,,MT,bm,,,,1,686,MTproc,,,
FL_Personenaufg._V1,21,32,right,female,52,,MT,bn,,,,1,715,MTproc,,,
FL_Personenaufg._V1,21,32,right,female,52,,MT,mn,,,,1,823,MTproc,,,
FL_Personenaufg._V1,21,32,right,female,52,,MT,bn,,,,1,1102,MTproc,,,
FL_Personenaufg._V1,21,32,right,female,52,,MT,mn,,,,1,967,MTproc,,,
FL_Personenaufg._V1,21,32,right,female,52,,MT,mm,,,,1,582,MTproc,,,
FL_Personenaufg._V1,21,32,right,female,52,,MT,bn,,,,1,976,MTproc,,,
FL_Personenaufg._V1,21,32,right,female,52,,MT,mm,,,,1,760,MTproc,,,
FL_Personenaufg._V1,21,32,right,female,52,,MT,nn,,,,1,1202,MTproc,,,
FL_Personenaufg._V1,21,32,right,female,52,,MT,im,,,,1,759,MTproc,,,
FL_Personenaufg._V1,21,32,right,female,52,,MT,bm,,,,1,641,MTproc,,,
FL_Personenaufg._V1,21,32,right,female,52,,MT,in,,,,1,1144,MTproc,,,
FL_Personenaufg._V1,21,32,right,female,52,,MT,bm,,,,1,679,MTproc,,,
FL_Personenaufg._V1,21,32,right,female,52,,MT,mm,,,,1,741,MTproc,,,
FL_Personenaufg._V1,21,32,right,female,52,,MT,bn,,,,0,848,MTproc,,,
FL_Personenaufg._V1,21,32,right,female,52,,MT,nm,,,,1,749,MTproc,,,
FL_Personenaufg._V1,21,32,right,female,52,,MT,mn,,,,1,1048,MTproc,,,
FL_Personenaufg._V1,21,32,right,female,52,,MT,im,,,,1,677,MTproc,,,
FL_Personenaufg._V1,21,32,right,female,52,,MT,nm,,,,1,955,MTproc,,,
FL_Personenaufg._V1,21,32,right,female,52,,MT,nn,,,,1,826,MTproc,,,
FL_Personenaufg._V1,21,32,right,female,52,,MT,in,,,,1,761,MTproc,,,
FL_Personenaufg._V1,21,32,right,female,52,,MT,bm,,,,1,523,MTproc,,,
FL_Personenaufg._V1,21,32,right,female,52,,MT,nm,,,,1,816,MTproc,,,
FL_Personenaufg._V1,21,32,right,female,52,,MT,im,,,,1,655,MTproc,,,
FL_Personenaufg._V1,21,32,right,female,52,,MT,mn,,,,1,1078,MTproc,,,
FL_Personenaufg._V1,21,32,right,female,52,,MT,nn,,,,0,1465,MTproc,,,
FL_Personenaufg._V1,21,32,right,female,52,,MT,im,,,,1,931,MTproc,,,
FL_Personenaufg._V1,21,32,right,female,54,,MT,mm,,,,0,1004,MTproc,,,
FL_Personenaufg._V1,21,32,right,female,54,,MT,nm,,,,1,939,MTproc,,,
FL_Personenaufg._V1,21,32,right,female,54,,MT,nn,,,,1,1260,MTproc,,,
FL_Personenaufg._V1,21,32,right,female,54,,MT,in,,,,1,871,MTproc,,,
FL_Personenaufg._V1,21,32,right,female,54,,MT,bm,,,,1,1059,MTproc,,,
FL_Personenaufg._V1,21,32,right,female,54,,MT,mn,,,,1,880,MTproc,,,
FL_Personenaufg._V1,21,32,right,female,54,,MT,nm,,,,1,891,MTproc,,,
FL_Personenaufg._V1,21,32,right,female,54,,MT,bn,,,,1,959,MTproc,,,
FL_Personenaufg._V1,21,32,right,female,54,,MT,bm,,,,0,1056,MTproc,,,
FL_Personenaufg._V1,21,32,right,female,54,,MT,mm,,,,1,852,MTproc,,,
FL_Personenaufg._V1,21,32,right,female,54,,MT,im,,,,1,609,MTproc,,,
FL_Personenaufg._V1,21,32,right,female,54,,MT,nn,,,,1,1090,MTproc,,,
FL_Personenaufg._V1,21,32,right,female,54,,MT,im,,,,1,708,MTproc,,,
FL_Personenaufg._V1,21,32,right,female,54,,MT,mn,,,,1,904,MTproc,,,
FL_Personenaufg._V1,21,32,right,female,54,,MT,nn,,,,1,1091,MTproc,,,
FL_Personenaufg._V1,21,32,right,female,54,,MT,mm,,,,1,733,MTproc,,,
FL_Personenaufg._V1,21,32,right,female,54,,MT,bm,,,,0,1416,MTproc,,,
FL_Personenaufg._V1,21,32,right,female,54,,MT,in,,,,1,852,MTproc,,,
FL_Personenaufg._V1,21,32,right,female,54,,MT,nm,,,,1,633,MTproc,,,
FL_Personenaufg._V1,21,32,right,female,54,,MT,im,,,,1,777,MTproc,,,
FL_Personenaufg._V1,21,32,right,female,54,,MT,mn,,,,1,889,MTproc,,,
FL_Personenaufg._V1,21,32,right,female,54,,MT,bn,,,,0,1077,MTproc,,,
FL_Personenaufg._V1,21,32,right,female,54,,MT,bn,,,,0,608,MTproc,,,
FL_Personenaufg._V1,21,32,right,female,54,,MT,im,,,,1,817,MTproc,,,
FL_Personenaufg._V1,21,32,right,female,54,,MT,im,,,,1,808,MTproc,,,
FL_Personenaufg._V1,21,32,right,female,54,,MT,bn,,,,0,960,MTproc,,,
FL_Personenaufg._V1,21,32,right,female,54,,MT,nm,,,,1,721,MTproc,,,
FL_Personenaufg._V1,21,32,right,female,54,,MT,in,,,,1,827,MTproc,,,
FL_Personenaufg._V1,21,32,right,female,54,,MT,nm,,,,1,746,MTproc,,,
FL_Personenaufg._V1,21,32,right,female,54,,MT,nn,,,,1,669,MTproc,,,
FL_Personenaufg._V1,21,32,right,female,54,,MT,mn,,,,1,851,MTproc,,,
FL_Personenaufg._V1,21,32,right,female,54,,MT,bn,,,,1,833,MTproc,,,
FL_Personenaufg._V1,21,32,right,female,54,,MT,im,,,,1,807,MTproc,,,
FL_Personenaufg._V1,21,32,right,female,54,,MT,nn,,,,1,663,MTproc,,,
FL_Personenaufg._V1,21,32,right,female,54,,MT,in,,,,1,694,MTproc,,,
FL_Personenaufg._V1,21,32,right,female,54,,MT,mn,,,,1,602,MTproc,,,
FL_Personenaufg._V1,21,32,right,female,54,,MT,im,,,,1,755,MTproc,,,
FL_Personenaufg._V1,21,32,right,female,54,,MT,bn,,,,1,852,MTproc,,,
FL_Personenaufg._V1,21,32,right,female,54,,MT,nn,,,,1,850,MTproc,,,
FL_Personenaufg._V1,21,32,right,female,54,,MT,bm,,,,1,711,MTproc,,,
FL_Personenaufg._V1,21,32,right,female,54,,MT,mm,,,,1,691,MTproc,,,
FL_Personenaufg._V1,21,32,right,female,54,,MT,nm,,,,1,672,MTproc,,,
FL_Personenaufg._V1,21,32,right,female,54,,MT,mm,,,,1,686,MTproc,,,
FL_Personenaufg._V1,21,32,right,female,54,,MT,bm,,,,1,578,MTproc,,,
FL_Personenaufg._V1,21,32,right,female,54,,MT,bm,,,,1,669,MTproc,,,
FL_Personenaufg._V1,21,32,right,female,54,,MT,im,,,,1,810,MTproc,,,
FL_Personenaufg._V1,21,32,right,female,54,,MT,mn,,,,1,834,MTproc,,,
FL_Personenaufg._V1,21,32,right,female,54,,MT,mm,,,,1,616,MTproc,,,
FL_Personenaufg._V1,25,24,right,female,50,,MT,mn,,,,0,523,MTproc,,,
FL_Personenaufg._V1,25,24,right,female,50,,MT,mm,,,,1,512,MTproc,,,
FL_Personenaufg._V1,25,24,right,female,50,,MT,nn,,,,1,493,MTproc,,,
FL_Personenaufg._V1,25,24,right,female,50,,MT,in,,,,1,427,MTproc,,,
FL_Personenaufg._V1,25,24,right,female,50,,MT,im,,,,1,572,MTproc,,,
FL_Personenaufg._V1,25,24,right,female,50,,MT,im,,,,0,438,MTproc,,,
FL_Personenaufg._V1,25,24,right,female,50,,MT,bm,,,,0,430,MTproc,,,
FL_Personenaufg._V1,25,24,right,female,50,,MT,mm,,,,1,487,MTproc,,,
FL_Personenaufg._V1,25,24,right,female,50,,MT,im,,,,1,277,MTproc,,,
FL_Personenaufg._V1,25,24,right,female,50,,MT,nm,,,,1,413,MTproc,,,
FL_Personenaufg._V1,25,24,right,female,50,,MT,mn,,,,1,599,MTproc,,,
FL_Personenaufg._V1,25,24,right,female,50,,MT,bn,,,,1,784,MTproc,,,
FL_Personenaufg._V1,25,24,right,female,50,,MT,mn,,,,0,536,MTproc,,,
FL_Personenaufg._V1,25,24,right,female,50,,MT,bm,,,,0,555,MTproc,,,
FL_Personenaufg._V1,25,24,right,female,50,,MT,bn,,,,1,518,MTproc,,,
FL_Personenaufg._V1,25,24,right,female,50,,MT,nm,,,,0,579,MTproc,,,
FL_Personenaufg._V1,25,24,right,female,50,,MT,bn,,,,1,453,MTproc,,,
FL_Personenaufg._V1,25,24,right,female,50,,MT,im,,,,1,389,MTproc,,,
FL_Personenaufg._V1,25,24,right,female,50,,MT,nn,,,,0,416,MTproc,,,
FL_Personenaufg._V1,25,24,right,female,50,,MT,in,,,,1,625,MTproc,,,
FL_Personenaufg._V1,25,24,right,female,50,,MT,mm,,,,0,785,MTproc,,,
FL_Personenaufg._V1,25,24,right,female,50,,MT,nn,,,,1,537,MTproc,,,
FL_Personenaufg._V1,25,24,right,female,50,,MT,bm,,,,1,572,MTproc,,,
FL_Personenaufg._V1,25,24,right,female,50,,MT,nm,,,,1,647,MTproc,,,
FL_Personenaufg._V1,25,24,right,female,50,,MT,mm,,,,1,565,MTproc,,,
FL_Personenaufg._V1,25,24,right,female,50,,MT,nm,,,,0,560,MTproc,,,
FL_Personenaufg._V1,25,24,right,female,50,,MT,im,,,,0,459,MTproc,,,
FL_Personenaufg._V1,25,24,right,female,50,,MT,bm,,,,1,539,MTproc,,,
FL_Personenaufg._V1,25,24,right,female,50,,MT,nn,,,,1,606,MTproc,,,
FL_Personenaufg._V1,25,24,right,female,50,,MT,nm,,,,0,935,MTproc,,,
FL_Personenaufg._V1,25,24,right,female,50,,MT,in,,,,1,641,MTproc,,,
FL_Personenaufg._V1,25,24,right,female,50,,MT,bm,,,,1,703,MTproc,,,
FL_Personenaufg._V1,25,24,right,female,50,,MT,bm,,,,1,755,MTproc,,,
FL_Personenaufg._V1,25,24,right,female,50,,MT,im,,,,1,869,MTproc,,,
FL_Personenaufg._V1,25,24,right,female,50,,MT,mm,,,,1,611,MTproc,,,
FL_Personenaufg._V1,25,24,right,female,50,,MT,nm,,,,1,507,MTproc,,,
FL_Personenaufg._V1,25,24,right,female,50,,MT,in,,,,0,409,MTproc,,,
FL_Personenaufg._V1,25,24,right,female,50,,MT,mm,,,,1,651,MTproc,,,
FL_Personenaufg._V1,25,24,right,female,50,,MT,bn,,,,0,602,MTproc,,,
FL_Personenaufg._V1,25,24,right,female,50,,MT,im,,,,1,481,MTproc,,,
FL_Personenaufg._V1,25,24,right,female,50,,MT,nn,,,,1,640,MTproc,,,
FL_Personenaufg._V1,25,24,right,female,50,,MT,mn,,,,1,544,MTproc,,,
FL_Personenaufg._V1,25,24,right,female,50,,MT,bn,,,,1,748,MTproc,,,
FL_Personenaufg._V1,25,24,right,female,50,,MT,bn,,,,1,622,MTproc,,,
FL_Personenaufg._V1,25,24,right,female,50,,MT,mn,,,,0,478,MTproc,,,
FL_Personenaufg._V1,25,24,right,female,50,,MT,mn,,,,0,685,MTproc,,,
FL_Personenaufg._V1,25,24,right,female,50,,MT,im,,,,1,458,MTproc,,,
FL_Personenaufg._V1,25,24,right,female,50,,MT,nn,,,,1,665,MTproc,,,
FL_Personenaufg._V1,25,24,right,female,52,,MT,im,,,,1,591,MTproc,,,
FL_Personenaufg._V1,25,24,right,female,52,,MT,in,,,,1,432,MTproc,,,
FL_Personenaufg._V1,25,24,right,female,52,,MT,mm,,,,1,769,MTproc,,,
FL_Personenaufg._V1,25,24,right,female,52,,MT,bm,,,,1,475,MTproc,,,
FL_Personenaufg._V1,25,24,right,female,52,,MT,bn,,,,0,434,MTproc,,,
FL_Personenaufg._V1,25,24,right,female,52,,MT,im,,,,1,561,MTproc,,,
FL_Personenaufg._V1,25,24,right,female,52,,MT,im,,,,1,412,MTproc,,,
FL_Personenaufg._V1,25,24,right,female,52,,MT,bm,,,,0,822,MTproc,,,
FL_Personenaufg._V1,25,24,right,female,52,,MT,nn,,,,1,773,MTproc,,,
FL_Personenaufg._V1,25,24,right,female,52,,MT,mn,,,,1,854,MTproc,,,
FL_Personenaufg._V1,25,24,right,female,52,,MT,mn,,,,1,372,MTproc,,,
FL_Personenaufg._V1,25,24,right,female,52,,MT,nm,,,,0,463,MTproc,,,
FL_Personenaufg._V1,25,24,right,female,52,,MT,mn,,,,0,551,MTproc,,,
FL_Personenaufg._V1,25,24,right,female,52,,MT,bn,,,,0,625,MTproc,,,
FL_Personenaufg._V1,25,24,right,female,52,,MT,bm,,,,0,713,MTproc,,,
FL_Personenaufg._V1,25,24,right,female,52,,MT,nm,,,,1,693,MTproc,,,
FL_Personenaufg._V1,25,24,right,female,52,,MT,nm,,,,1,530,MTproc,,,
FL_Personenaufg._V1,25,24,right,female,52,,MT,in,,,,1,679,MTproc,,,
FL_Personenaufg._V1,25,24,right,female,52,,MT,mm,,,,1,805,MTproc,,,
FL_Personenaufg._V1,25,24,right,female,52,,MT,mm,,,,1,509,MTproc,,,
FL_Personenaufg._V1,25,24,right,female,52,,MT,bn,,,,1,834,MTproc,,,
FL_Personenaufg._V1,25,24,right,female,52,,MT,nn,,,,1,608,MTproc,,,
FL_Personenaufg._V1,25,24,right,female,52,,MT,nn,,,,1,680,MTproc,,,
FL_Personenaufg._V1,25,24,right,female,52,,MT,im,,,,1,662,MTproc,,,
FL_Personenaufg._V1,25,24,right,female,52,,MT,bm,,,,0,892,MTproc,,,
FL_Personenaufg._V1,25,24,right,female,52,,MT,bm,,,,1,536,MTproc,,,
FL_Personenaufg._V1,25,24,right,female,52,,MT,mm,,,,0,892,MTproc,,,
FL_Personenaufg._V1,25,24,right,female,52,,MT,im,,,,1,440,MTproc,,,
FL_Personenaufg._V1,25,24,right,female,52,,MT,mn,,,,1,592,MTproc,,,
FL_Personenaufg._V1,25,24,right,female,52,,MT,nm,,,,0,666,MTproc,,,
FL_Personenaufg._V1,25,24,right,female,52,,MT,nn,,,,1,839,MTproc,,,
FL_Personenaufg._V1,25,24,right,female,52,,MT,in,,,,1,646,MTproc,,,
FL_Personenaufg._V1,25,24,right,female,52,,MT,mn,,,,0,581,MTproc,,,
FL_Personenaufg._V1,25,24,right,female,52,,MT,mm,,,,1,454,MTproc,,,
FL_Personenaufg._V1,25,24,right,female,52,,MT,bn,,,,1,758,MTproc,,,
FL_Personenaufg._V1,25,24,right,female,52,,MT,im,,,,1,464,MTproc,,,
FL_Personenaufg._V1,25,24,right,female,52,,MT,mm,,,,0,640,MTproc,,,
FL_Personenaufg._V1,25,24,right,female,52,,MT,bm,,,,0,983,MTproc,,,
FL_Personenaufg._V1,25,24,right,female,52,,MT,im,,,,1,638,MTproc,,,
FL_Personenaufg._V1,25,24,right,female,52,,MT,nm,,,,1,701,MTproc,,,
FL_Personenaufg._V1,25,24,right,female,52,,MT,mn,,,,1,754,MTproc,,,
FL_Personenaufg._V1,25,24,right,female,52,,MT,nn,,,,1,580,MTproc,,,
FL_Personenaufg._V1,25,24,right,female,52,,MT,in,,,,1,583,MTproc,,,
FL_Personenaufg._V1,25,24,right,female,52,,MT,im,,,,0,592,MTproc,,,
FL_Personenaufg._V1,25,24,right,female,52,,MT,bn,,,,1,442,MTproc,,,
FL_Personenaufg._V1,25,24,right,female,52,,MT,nn,,,,1,578,MTproc,,,
FL_Personenaufg._V1,25,24,right,female,52,,MT,bn,,,,0,477,MTproc,,,
FL_Personenaufg._V1,25,24,right,female,52,,MT,nm,,,,1,611,MTproc,,,
FL_Personenaufg._V1,25,24,right,female,54,,MT,mm,,,,0,753,MTproc,,,
FL_Personenaufg._V1,25,24,right,female,54,,MT,im,,,,1,531,MTproc,,,
FL_Personenaufg._V1,25,24,right,female,54,,MT,in,,,,0,439,MTproc,,,
FL_Personenaufg._V1,25,24,right,female,54,,MT,bn,,,,1,624,MTproc,,,
FL_Personenaufg._V1,25,24,right,female,54,,MT,mm,,,,0,304,MTproc,,,
FL_Personenaufg._V1,25,24,right,female,54,,MT,bn,,,,1,622,MTproc,,,
FL_Personenaufg._V1,25,24,right,female,54,,MT,mm,,,,0,326,MTproc,,,
FL_Personenaufg._V1,25,24,right,female,54,,MT,nn,,,,1,428,MTproc,,,
FL_Personenaufg._V1,25,24,right,female,54,,MT,mn,,,,1,485,MTproc,,,
FL_Personenaufg._V1,25,24,right,female,54,,MT,nn,,,,1,371,MTproc,,,
FL_Personenaufg._V1,25,24,right,female,54,,MT,mn,,,,0,486,MTproc,,,
FL_Personenaufg._V1,25,24,right,female,54,,MT,nn,,,,1,821,MTproc,,,
FL_Personenaufg._V1,25,24,right,female,54,,MT,bn,,,,1,435,MTproc,,,
FL_Personenaufg._V1,25,24,right,female,54,,MT,nm,,,,0,484,MTproc,,,
FL_Personenaufg._V1,25,24,right,female,54,,MT,nm,,,,0,378,MTproc,,,
FL_Personenaufg._V1,25,24,right,female,54,,MT,nm,,,,1,310,MTproc,,,
FL_Personenaufg._V1,25,24,right,female,54,,MT,in,,,,0,540,MTproc,,,
FL_Personenaufg._V1,25,24,right,female,54,,MT,im,,,,1,311,MTproc,,,
FL_Personenaufg._V1,25,24,right,female,54,,MT,bm,,,,0,493,MTproc,,,
FL_Personenaufg._V1,25,24,right,female,54,,MT,im,,,,1,476,MTproc,,,
FL_Personenaufg._V1,25,24,right,female,54,,MT,im,,,,1,555,MTproc,,,
FL_Personenaufg._V1,25,24,right,female,54,,MT,mn,,,,0,670,MTproc,,,
FL_Personenaufg._V1,25,24,right,female,54,,MT,bm,,,,0,651,MTproc,,,
FL_Personenaufg._V1,25,24,right,female,54,,MT,bm,,,,1,314,MTproc,,,
FL_Personenaufg._V1,25,24,right,female,54,,MT,im,,,,0,512,MTproc,,,
FL_Personenaufg._V1,25,24,right,female,54,,MT,nn,,,,1,565,MTproc,,,
FL_Personenaufg._V1,25,24,right,female,54,,MT,im,,,,1,447,MTproc,,,
FL_Personenaufg._V1,25,24,right,female,54,,MT,bm,,,,1,799,MTproc,,,
FL_Personenaufg._V1,25,24,right,female,54,,MT,mn,,,,1,583,MTproc,,,
FL_Personenaufg._V1,25,24,right,female,54,,MT,mn,,,,0,529,MTproc,,,
FL_Personenaufg._V1,25,24,right,female,54,,MT,im,,,,1,421,MTproc,,,
FL_Personenaufg._V1,25,24,right,female,54,,MT,bn,,,,1,446,MTproc,,,
FL_Personenaufg._V1,25,24,right,female,54,,MT,in,,,,1,606,MTproc,,,
FL_Personenaufg._V1,25,24,right,female,54,,MT,bm,,,,1,455,MTproc,,,
FL_Personenaufg._V1,25,24,right,female,54,,MT,nm,,,,1,679,MTproc,,,
FL_Personenaufg._V1,25,24,right,female,54,,MT,nn,,,,1,540,MTproc,,,
FL_Personenaufg._V1,25,24,right,female,54,,MT,mm,,,,1,704,MTproc,,,
FL_Personenaufg._V1,25,24,right,female,54,,MT,bn,,,,1,500,MTproc,,,
FL_Personenaufg._V1,25,24,right,female,54,,MT,nm,,,,1,609,MTproc,,,
FL_Personenaufg._V1,25,24,right,female,54,,MT,in,,,,1,722,MTproc,,,
FL_Personenaufg._V1,25,24,right,female,54,,MT,mm,,,,1,630,MTproc,,,
FL_Personenaufg._V1,25,24,right,female,54,,MT,nm,,,,1,494,MTproc,,,
FL_Personenaufg._V1,25,24,right,female,54,,MT,mm,,,,0,844,MTproc,,,
FL_Personenaufg._V1,25,24,right,female,54,,MT,im,,,,1,410,MTproc,,,
FL_Personenaufg._V1,25,24,right,female,54,,MT,mn,,,,0,363,MTproc,,,
FL_Personenaufg._V1,25,24,right,female,54,,MT,bn,,,,1,447,MTproc,,,
FL_Personenaufg._V1,25,24,right,female,54,,MT,bm,,,,1,678,MTproc,,,
FL_Personenaufg._V1,25,24,right,female,54,,MT,nn,,,,1,612,MTproc,,,
FL_Personenaufg._V1,29,19,right,female,50,,MT,nn,,,,0,886,MTproc,,,
FL_Personenaufg._V1,29,19,right,female,50,,MT,nm,,,,1,1074,MTproc,,,
FL_Personenaufg._V1,29,19,right,female,50,,MT,nn,,,,1,1100,MTproc,,,
FL_Personenaufg._V1,29,19,right,female,50,,MT,bm,,,,1,1150,MTproc,,,
FL_Personenaufg._V1,29,19,right,female,50,,MT,in,,,,1,957,MTproc,,,
FL_Personenaufg._V1,29,19,right,female,50,,MT,bm,,,,1,838,MTproc,,,
FL_Personenaufg._V1,29,19,right,female,50,,MT,mm,,,,1,716,MTproc,,,
FL_Personenaufg._V1,29,19,right,female,50,,MT,nm,,,,0,688,MTproc,,,
FL_Personenaufg._V1,29,19,right,female,50,,MT,im,,,,1,669,MTproc,,,
FL_Personenaufg._V1,29,19,right,female,50,,MT,mn,,,,1,858,MTproc,,,
FL_Personenaufg._V1,29,19,right,female,50,,MT,bn,,,,0,1048,MTproc,,,
FL_Personenaufg._V1,29,19,right,female,50,,MT,im,,,,1,515,MTproc,,,
FL_Personenaufg._V1,29,19,right,female,50,,MT,bn,,,,0,0,MTproc,,,
FL_Personenaufg._V1,29,19,right,female,50,,MT,mn,,,,1,800,MTproc,,,
FL_Personenaufg._V1,29,19,right,female,50,,MT,im,,,,1,416,MTproc,,,
FL_Personenaufg._V1,29,19,right,female,50,,MT,nn,,,,1,777,MTproc,,,
FL_Personenaufg._V1,29,19,right,female,50,,MT,bm,,,,1,810,MTproc,,,
FL_Personenaufg._V1,29,19,right,female,50,,MT,mm,,,,1,442,MTproc,,,
FL_Personenaufg._V1,29,19,right,female,50,,MT,bn,,,,1,626,MTproc,,,
FL_Personenaufg._V1,29,19,right,female,50,,MT,mm,,,,1,458,MTproc,,,
FL_Personenaufg._V1,29,19,right,female,50,,MT,im,,,,1,577,MTproc,,,
FL_Personenaufg._V1,29,19,right,female,50,,MT,in,,,,1,635,MTproc,,,
FL_Personenaufg._V1,29,19,right,female,50,,MT,nm,,,,1,707,MTproc,,,
FL_Personenaufg._V1,29,19,right,female,50,,MT,mn,,,,1,607,MTproc,,,
FL_Personenaufg._V1,29,19,right,female,50,,MT,nn,,,,1,824,MTproc,,,
FL_Personenaufg._V1,29,19,right,female,50,,MT,bm,,,,1,399,MTproc,,,
FL_Personenaufg._V1,29,19,right,female,50,,MT,nm,,,,0,665,MTproc,,,
FL_Personenaufg._V1,29,19,right,female,50,,MT,mm,,,,1,719,MTproc,,,
FL_Personenaufg._V1,29,19,right,female,50,,MT,im,,,,1,395,MTproc,,,
FL_Personenaufg._V1,29,19,right,female,50,,MT,bm,,,,1,461,MTproc,,,
FL_Personenaufg._V1,29,19,right,female,50,,MT,im,,,,1,509,MTproc,,,
FL_Personenaufg._V1,29,19,right,female,50,,MT,im,,,,1,474,MTproc,,,
FL_Personenaufg._V1,29,19,right,female,50,,MT,mn,,,,1,577,MTproc,,,
FL_Personenaufg._V1,29,19,right,female,50,,MT,bn,,,,0,611,MTproc,,,
FL_Personenaufg._V1,29,19,right,female,50,,MT,bn,,,,1,1092,MTproc,,,
FL_Personenaufg._V1,29,19,right,female,50,,MT,in,,,,1,798,MTproc,,,
FL_Personenaufg._V1,29,19,right,female,50,,MT,mm,,,,1,695,MTproc,,,
FL_Personenaufg._V1,29,19,right,female,50,,MT,bn,,,,1,524,MTproc,,,
FL_Personenaufg._V1,29,19,right,female,50,,MT,nm,,,,1,576,MTproc,,,
FL_Personenaufg._V1,29,19,right,female,50,,MT,nm,,,,1,499,MTproc,,,
FL_Personenaufg._V1,29,19,right,female,50,,MT,nn,,,,1,521,MTproc,,,
FL_Personenaufg._V1,29,19,right,female,50,,MT,mm,,,,1,437,MTproc,,,
FL_Personenaufg._V1,29,19,right,female,50,,MT,mn,,,,1,733,MTproc,,,
FL_Personenaufg._V1,29,19,right,female,50,,MT,mn,,,,1,1448,MTproc,,,
FL_Personenaufg._V1,29,19,right,female,50,,MT,in,,,,1,754,MTproc,,,
FL_Personenaufg._V1,29,19,right,female,50,,MT,bm,,,,1,596,MTproc,,,
FL_Personenaufg._V1,29,19,right,female,50,,MT,nn,,,,1,734,MTproc,,,
FL_Personenaufg._V1,29,19,right,female,50,,MT,im,,,,1,808,MTproc,,,
FL_Personenaufg._V1,29,19,right,female,52,,MT,mn,,,,1,867,MTproc,,,
FL_Personenaufg._V1,29,19,right,female,52,,MT,mm,,,,1,560,MTproc,,,
FL_Personenaufg._V1,29,19,right,female,52,,MT,bm,,,,1,619,MTproc,,,
FL_Personenaufg._V1,29,19,right,female,52,,MT,in,,,,1,579,MTproc,,,
FL_Personenaufg._V1,29,19,right,female,52,,MT,mn,,,,1,662,MTproc,,,
FL_Personenaufg._V1,29,19,right,female,52,,MT,nn,,,,1,1139,MTproc,,,
FL_Personenaufg._V1,29,19,right,female,52,,MT,im,,,,1,564,MTproc,,,
FL_Personenaufg._V1,29,19,right,female,52,,MT,im,,,,1,470,MTproc,,,
FL_Personenaufg._V1,29,19,right,female,52,,MT,bn,,,,1,1125,MTproc,,,
FL_Personenaufg._V1,29,19,right,female,52,,MT,bn,,,,1,862,MTproc,,,
FL_Personenaufg._V1,29,19,right,female,52,,MT,mn,,,,1,931,MTproc,,,
FL_Personenaufg._V1,29,19,right,female,52,,MT,nn,,,,1,957,MTproc,,,
FL_Personenaufg._V1,29,19,right,female,52,,MT,nn,,,,1,606,MTproc,,,
FL_Personenaufg._V1,29,19,right,female,52,,MT,nm,,,,0,711,MTproc,,,
FL_Personenaufg._V1,29,19,right,female,52,,MT,nm,,,,1,562,MTproc,,,
FL_Personenaufg._V1,29,19,right,female,52,,MT,im,,,,1,605,MTproc,,,
FL_Personenaufg._V1,29,19,right,female,52,,MT,mm,,,,1,534,MTproc,,,
FL_Personenaufg._V1,29,19,right,female,52,,MT,in,,,,1,610,MTproc,,,
FL_Personenaufg._V1,29,19,right,female,52,,MT,bm,,,,1,531,MTproc,,,
FL_Personenaufg._V1,29,19,right,female,52,,MT,nm,,,,1,647,MTproc,,,
FL_Personenaufg._V1,29,19,right,female,52,,MT,bm,,,,1,630,MTproc,,,
FL_Personenaufg._V1,29,19,right,female,52,,MT,im,,,,1,358,MTproc,,,
FL_Personenaufg._V1,29,19,right,female,52,,MT,mm,,,,1,482,MTproc,,,
FL_Personenaufg._V1,29,19,right,female,52,,MT,bn,,,,1,473,MTproc,,,
FL_Personenaufg._V1,29,19,right,female,52,,MT,mn,,,,1,680,MTproc,,,
FL_Personenaufg._V1,29,19,right,female,52,,MT,in,,,,1,516,MTproc,,,
FL_Personenaufg._V1,29,19,right,female,52,,MT,bn,,,,1,521,MTproc,,,
FL_Personenaufg._V1,29,19,right,female,52,,MT,nm,,,,1,590,MTproc,,,
FL_Personenaufg._V1,29,19,right,female,52,,MT,im,,,,1,503,MTproc,,,
FL_Personenaufg._V1,29,19,right,female,52,,MT,im,,,,1,541,MTproc,,,
FL_Personenaufg._V1,29,19,right,female,52,,MT,mm,,,,1,521,MTproc,,,
FL_Personenaufg._V1,29,19,right,female,52,,MT,nn,,,,1,605,MTproc,,,
FL_Personenaufg._V1,29,19,right,female,52,,MT,bn,,,,1,910,MTproc,,,
FL_Personenaufg._V1,29,19,right,female,52,,MT,bm,,,,1,529,MTproc,,,
FL_Personenaufg._V1,29,19,right,female,52,,MT,im,,,,1,574,MTproc,,,
FL_Personenaufg._V1,29,19,right,female,52,,MT,nm,,,,1,735,MTproc,,,
FL_Personenaufg._V1,29,19,right,female,52,,MT,bm,,,,1,682,MTproc,,,
FL_Personenaufg._V1,29,19,right,female,52,,MT,nn,,,,1,616,MTproc,,,
FL_Personenaufg._V1,29,19,right,female,52,,MT,bm,,,,1,504,MTproc,,,
FL_Personenaufg._V1,29,19,right,female,52,,MT,mm,,,,1,589,MTproc,,,
FL_Personenaufg._V1,29,19,right,female,52,,MT,bn,,,,1,783,MTproc,,,
FL_Personenaufg._V1,29,19,right,female,52,,MT,in,,,,0,623,MTproc,,,
FL_Personenaufg._V1,29,19,right,female,52,,MT,nm,,,,0,1111,MTproc,,,
FL_Personenaufg._V1,29,19,right,female,52,,MT,mn,,,,1,753,MTproc,,,
FL_Personenaufg._V1,29,19,right,female,52,,MT,nn,,,,1,938,MTproc,,,
FL_Personenaufg._V1,29,19,right,female,52,,MT,mm,,,,1,523,MTproc,,,
FL_Personenaufg._V1,29,19,right,female,52,,MT,im,,,,1,456,MTproc,,,
FL_Personenaufg._V1,29,19,right,female,52,,MT,mn,,,,1,464,MTproc,,,
FL_Personenaufg._V1,29,19,right,female,54,,MT,in,,,,1,844,MTproc,,,
FL_Personenaufg._V1,29,19,right,female,54,,MT,nm,,,,1,571,MTproc,,,
FL_Personenaufg._V1,29,19,right,female,54,,MT,mn,,,,0,493,MTproc,,,
FL_Personenaufg._V1,29,19,right,female,54,,MT,nn,,,,1,875,MTproc,,,
FL_Personenaufg._V1,29,19,right,female,54,,MT,bn,,,,1,944,MTproc,,,
FL_Personenaufg._V1,29,19,right,female,54,,MT,mm,,,,1,537,MTproc,,,
FL_Personenaufg._V1,29,19,right,female,54,,MT,nm,,,,1,501,MTproc,,,
FL_Personenaufg._V1,29,19,right,female,54,,MT,mm,,,,1,626,MTproc,,,
FL_Personenaufg._V1,29,19,right,female,54,,MT,bm,,,,1,643,MTproc,,,
FL_Personenaufg._V1,29,19,right,female,54,,MT,im,,,,1,402,MTproc,,,
FL_Personenaufg._V1,29,19,right,female,54,,MT,bn,,,,1,675,MTproc,,,
FL_Personenaufg._V1,29,19,right,female,54,,MT,mm,,,,1,561,MTproc,,,
FL_Personenaufg._V1,29,19,right,female,54,,MT,nn,,,,1,716,MTproc,,,
FL_Personenaufg._V1,29,19,right,female,54,,MT,im,,,,1,487,MTproc,,,
FL_Personenaufg._V1,29,19,right,female,54,,MT,bn,,,,1,461,MTproc,,,
FL_Personenaufg._V1,29,19,right,female,54,,MT,nm,,,,1,541,MTproc,,,
FL_Personenaufg._V1,29,19,right,female,54,,MT,nn,,,,1,769,MTproc,,,
FL_Personenaufg._V1,29,19,right,female,54,,MT,mn,,,,1,915,MTproc,,,
FL_Personenaufg._V1,29,19,right,female,54,,MT,im,,,,1,678,MTproc,,,
FL_Personenaufg._V1,29,19,right,female,54,,MT,mn,,,,1,836,MTproc,,,
FL_Personenaufg._V1,29,19,right,female,54,,MT,bm,,,,1,649,MTproc,,,
FL_Personenaufg._V1,29,19,right,female,54,,MT,bm,,,,1,567,MTproc,,,
FL_Personenaufg._V1,29,19,right,female,54,,MT,im,,,,1,634,MTproc,,,
FL_Personenaufg._V1,29,19,right,female,54,,MT,in,,,,1,1137,MTproc,,,
FL_Personenaufg._V1,29,19,right,female,54,,MT,bn,,,,1,737,MTproc,,,
FL_Personenaufg._V1,29,19,right,female,54,,MT,bm,,,,1,532,MTproc,,,
FL_Personenaufg._V1,29,19,right,female,54,,MT,in,,,,1,592,MTproc,,,
FL_Personenaufg._V1,29,19,right,female,54,,MT,mn,,,,1,729,MTproc,,,
FL_Personenaufg._V1,29,19,right,female,54,,MT,im,,,,1,797,MTproc,,,
FL_Personenaufg._V1,29,19,right,female,54,,MT,nm,,,,0,404,MTproc,,,
FL_Personenaufg._V1,29,19,right,female,54,,MT,nn,,,,1,638,MTproc,,,
FL_Personenaufg._V1,29,19,right,female,54,,MT,mm,,,,1,550,MTproc,,,
FL_Personenaufg._V1,29,19,right,female,54,,MT,im,,,,1,601,MTproc,,,
FL_Personenaufg._V1,29,19,right,female,54,,MT,bm,,,,1,578,MTproc,,,
FL_Personenaufg._V1,29,19,right,female,54,,MT,im,,,,1,500,MTproc,,,
FL_Personenaufg._V1,29,19,right,female,54,,MT,im,,,,1,545,MTproc,,,
FL_Personenaufg._V1,29,19,right,female,54,,MT,nm,,,,1,469,MTproc,,,
FL_Personenaufg._V1,29,19,right,female,54,,MT,mm,,,,1,484,MTproc,,,
FL_Personenaufg._V1,29,19,right,female,54,,MT,mn,,,,1,562,MTproc,,,
FL_Personenaufg._V1,29,19,right,female,54,,MT,nm,,,,1,670,MTproc,,,
FL_Personenaufg._V1,29,19,right,female,54,,MT,in,,,,1,954,MTproc,,,
FL_Personenaufg._V1,29,19,right,female,54,,MT,bn,,,,1,819,MTproc,,,
FL_Personenaufg._V1,29,19,right,female,54,,MT,bn,,,,1,682,MTproc,,,
FL_Personenaufg._V1,29,19,right,female,54,,MT,mn,,,,1,680,MTproc,,,
FL_Personenaufg._V1,29,19,right,female,54,,MT,nn,,,,1,1117,MTproc,,,
FL_Personenaufg._V1,29,19,right,female,54,,MT,nn,,,,1,799,MTproc,,,
FL_Personenaufg._V1,29,19,right,female,54,,MT,bm,,,,1,415,MTproc,,,
FL_Personenaufg._V1,29,19,right,female,54,,MT,mm,,,,1,497,MTproc,,,
FL_Personenaufg._V1,33,24,right,female,50,,MT,nn,,,,0,0,MTproc,,,
FL_Personenaufg._V1,33,24,right,female,50,,MT,im,,,,0,0,MTproc,,,
FL_Personenaufg._V1,33,24,right,female,50,,MT,mn,,,,0,0,MTproc,,,
FL_Personenaufg._V1,33,24,right,female,50,,MT,mn,,,,1,1073,MTproc,,,
FL_Personenaufg._V1,33,24,right,female,50,,MT,im,,,,1,412,MTproc,,,
FL_Personenaufg._V1,33,24,right,female,50,,MT,nn,,,,0,0,MTproc,,,
FL_Personenaufg._V1,33,24,right,female,50,,MT,bn,,,,1,205,MTproc,,,
FL_Personenaufg._V1,33,24,right,female,50,,MT,bn,,,,0,129,MTproc,,,
FL_Personenaufg._V1,33,24,right,female,50,,MT,nn,,,,0,303,MTproc,,,
FL_Personenaufg._V1,33,24,right,female,50,,MT,in,,,,1,54,MTproc,,,
FL_Personenaufg._V1,33,24,right,female,50,,MT,bn,,,,0,0,MTproc,,,
FL_Personenaufg._V1,33,24,right,female,50,,MT,bm,,,,0,0,MTproc,,,
FL_Personenaufg._V1,33,24,right,female,50,,MT,mm,,,,0,0,MTproc,,,
FL_Personenaufg._V1,33,24,right,female,50,,MT,bm,,,,1,247,MTproc,,,
FL_Personenaufg._V1,33,24,right,female,50,,MT,mm,,,,0,0,MTproc,,,
FL_Personenaufg._V1,33,24,right,female,50,,MT,nm,,,,1,152,MTproc,,,
FL_Personenaufg._V1,33,24,right,female,50,,MT,nm,,,,1,1398,MTproc,,,
FL_Personenaufg._V1,33,24,right,female,50,,MT,nm,,,,1,147,MTproc,,,
FL_Personenaufg._V1,33,24,right,female,50,,MT,mn,,,,0,0,MTproc,,,
FL_Personenaufg._V1,33,24,right,female,50,,MT,in,,,,0,537,MTproc,,,
FL_Personenaufg._V1,33,24,right,female,50,,MT,im,,,,0,0,MTproc,,,
FL_Personenaufg._V1,33,24,right,female,50,,MT,mm,,,,1,116,MTproc,,,
FL_Personenaufg._V1,33,24,right,female,50,,MT,bm,,,,0,387,MTproc,,,
FL_Personenaufg._V1,33,24,right,female,50,,MT,im,,,,0,134,MTproc,,,
FL_Personenaufg._V1,33,24,right,female,50,,MT,mn,,,,0,0,MTproc,,,
FL_Personenaufg._V1,33,24,right,female,50,,MT,mm,,,,1,109,MTproc,,,
FL_Personenaufg._V1,33,24,right,female,50,,MT,bn,,,,0,221,MTproc,,,
FL_Personenaufg._V1,33,24,right,female,50,,MT,nn,,,,0,207,MTproc,,,
FL_Personenaufg._V1,33,24,right,female,50,,MT,mn,,,,0,58,MTproc,,,
FL_Personenaufg._V1,33,24,right,female,50,,MT,bm,,,,1,4,MTproc,,,
FL_Personenaufg._V1,33,24,right,female,50,,MT,bn,,,,0,0,MTproc,,,
FL_Personenaufg._V1,33,24,right,female,50,,MT,nm,,,,0,0,MTproc,,,
FL_Personenaufg._V1,33,24,right,female,50,,MT,im,,,,0,0,MTproc,,,
FL_Personenaufg._V1,33,24,right,female,50,,MT,in,,,,1,896,MTproc,,,
FL_Personenaufg._V1,33,24,right,female,50,,MT,bm,,,,0,324,MTproc,,,
FL_Personenaufg._V1,33,24,right,female,50,,MT,nm,,,,1,578,MTproc,,,
FL_Personenaufg._V1,33,24,right,female,50,,MT,im,,,,0,244,MTproc,,,
FL_Personenaufg._V1,33,24,right,female,50,,MT,mm,,,,1,301,MTproc,,,
FL_Personenaufg._V1,33,24,right,female,50,,MT,bm,,,,1,308,MTproc,,,
FL_Personenaufg._V1,33,24,right,female,50,,MT,nn,,,,0,0,MTproc,,,
FL_Personenaufg._V1,33,24,right,female,50,,MT,mn,,,,1,571,MTproc,,,
FL_Personenaufg._V1,33,24,right,female,50,,MT,im,,,,0,0,MTproc,,,
FL_Personenaufg._V1,33,24,right,female,50,,MT,bn,,,,0,0,MTproc,,,
FL_Personenaufg._V1,33,24,right,female,50,,MT,in,,,,0,1236,MTproc,,,
FL_Personenaufg._V1,33,24,right,female,50,,MT,im,,,,1,824,MTproc,,,
FL_Personenaufg._V1,33,24,right,female,50,,MT,nm,,,,0,591,MTproc,,,
FL_Personenaufg._V1,33,24,right,female,50,,MT,mm,,,,1,601,MTproc,,,
FL_Personenaufg._V1,33,24,right,female,50,,MT,nn,,,,0,305,MTproc,,,
FL_Personenaufg._V1,33,24,right,female,52,,MT,nm,,,,1,882,MTproc,,,
FL_Personenaufg._V1,33,24,right,female,52,,MT,nn,,,,0,990,MTproc,,,
FL_Personenaufg._V1,33,24,right,female,52,,MT,bn,,,,0,318,MTproc,,,
FL_Personenaufg._V1,33,24,right,female,52,,MT,bm,,,,1,1058,MTproc,,,
FL_Personenaufg._V1,33,24,right,female,52,,MT,mm,,,,0,567,MTproc,,,
FL_Personenaufg._V1,33,24,right,female,52,,MT,bn,,,,1,498,MTproc,,,
FL_Personenaufg._V1,33,24,right,female,52,,MT,bn,,,,0,464,MTproc,,,
FL_Personenaufg._V1,33,24,right,female,52,,MT,mn,,,,0,423,MTproc,,,
FL_Personenaufg._V1,33,24,right,female,52,,MT,mn,,,,0,0,MTproc,,,
FL_Personenaufg._V1,33,24,right,female,52,,MT,mm,,,,0,0,MTproc,,,
FL_Personenaufg._V1,33,24,right,female,52,,MT,in,,,,0,0,MTproc,,,
FL_Personenaufg._V1,33,24,right,female,52,,MT,in,,,,0,0,MTproc,,,
FL_Personenaufg._V1,33,24,right,female,52,,MT,im,,,,1,584,MTproc,,,
FL_Personenaufg._V1,33,24,right,female,52,,MT,mm,,,,0,0,MTproc,,,
FL_Personenaufg._V1,33,24,right,female,52,,MT,bm,,,,0,442,MTproc,,,
FL_Personenaufg._V1,33,24,right,female,52,,MT,im,,,,0,514,MTproc,,,
FL_Personenaufg._V1,33,24,right,female,52,,MT,im,,,,1,400,MTproc,,,
FL_Personenaufg._V1,33,24,right,female,52,,MT,nm,,,,1,561,MTproc,,,
FL_Personenaufg._V1,33,24,right,female,52,,MT,mn,,,,0,316,MTproc,,,
FL_Personenaufg._V1,33,24,right,female,52,,MT,bm,,,,1,442,MTproc,,,
FL_Personenaufg._V1,33,24,right,female,52,,MT,im,,,,0,410,MTproc,,,
FL_Personenaufg._V1,33,24,right,female,52,,MT,nm,,,,1,508,MTproc,,,
FL_Personenaufg._V1,33,24,right,female,52,,MT,nn,,,,1,82,MTproc,,,
FL_Personenaufg._V1,33,24,right,female,52,,MT,nn,,,,0,202,MTproc,,,
FL_Personenaufg._V1,33,24,right,female,52,,MT,mn,,,,0,414,MTproc,,,
FL_Personenaufg._V1,33,24,right,female,52,,MT,mm,,,,1,456,MTproc,,,
FL_Personenaufg._V1,33,24,right,female,52,,MT,nm,,,,1,431,MTproc,,,
FL_Personenaufg._V1,33,24,right,female,52,,MT,in,,,,0,432,MTproc,,,
FL_Personenaufg._V1,33,24,right,female,52,,MT,nm,,,,0,249,MTproc,,,
FL_Personenaufg._V1,33,24,right,female,52,,MT,in,,,,1,362,MTproc,,,
FL_Personenaufg._V1,33,24,right,female,52,,MT,im,,,,1,271,MTproc,,,
FL_Personenaufg._V1,33,24,right,female,52,,MT,bm,,,,0,463,MTproc,,,
FL_Personenaufg._V1,33,24,right,female,52,,MT,mn,,,,0,462,MTproc,,,
FL_Personenaufg._V1,33,24,right,female,52,,MT,mn,,,,0,150,MTproc,,,
FL_Personenaufg._V1,33,24,right,female,52,,MT,nn,,,,0,460,MTproc,,,
FL_Personenaufg._V1,33,24,right,female,52,,MT,bn,,,,0,0,MTproc,,,
FL_Personenaufg._V1,33,24,right,female,52,,MT,bm,,,,1,571,MTproc,,,
FL_Personenaufg._V1,33,24,right,female,52,,MT,nn,,,,0,629,MTproc,,,
FL_Personenaufg._V1,33,24,right,female,52,,MT,mm,,,,1,789,MTproc,,,
FL_Personenaufg._V1,33,24,right,female,52,,MT,im,,,,1,294,MTproc,,,
FL_Personenaufg._V1,33,24,right,female,52,,MT,bm,,,,1,573,MTproc,,,
FL_Personenaufg._V1,33,24,right,female,52,,MT,mm,,,,0,599,MTproc,,,
FL_Personenaufg._V1,33,24,right,female,52,,MT,bn,,,,0,176,MTproc,,,
FL_Personenaufg._V1,33,24,right,female,52,,MT,im,,,,0,0,MTproc,,,
FL_Personenaufg._V1,33,24,right,female,52,,MT,bn,,,,1,388,MTproc,,,
FL_Personenaufg._V1,33,24,right,female,52,,MT,nn,,,,1,975,MTproc,,,
FL_Personenaufg._V1,33,24,right,female,52,,MT,nm,,,,0,311,MTproc,,,
FL_Personenaufg._V1,33,24,right,female,52,,MT,im,,,,1,326,MTproc,,,
FL_Personenaufg._V1,33,24,right,female,54,,MT,mn,,,,0,0,MTproc,,,
FL_Personenaufg._V1,33,24,right,female,54,,MT,im,,,,1,241,MTproc,,,
FL_Personenaufg._V1,33,24,right,female,54,,MT,nm,,,,0,323,MTproc,,,
FL_Personenaufg._V1,33,24,right,female,54,,MT,bn,,,,0,89,MTproc,,,
FL_Personenaufg._V1,33,24,right,female,54,,MT,bn,,,,0,122,MTproc,,,
FL_Personenaufg._V1,33,24,right,female,54,,MT,nn,,,,0,217,MTproc,,,
FL_Personenaufg._V1,33,24,right,female,54,,MT,nm,,,,0,99,MTproc,,,
FL_Personenaufg._V1,33,24,right,female,54,,MT,mm,,,,0,155,MTproc,,,
FL_Personenaufg._V1,33,24,right,female,54,,MT,nn,,,,0,328,MTproc,,,
FL_Personenaufg._V1,33,24,right,female,54,,MT,im,,,,1,86,MTproc,,,
FL_Personenaufg._V1,33,24,right,female,54,,MT,bm,,,,1,134,MTproc,,,
FL_Personenaufg._V1,33,24,right,female,54,,MT,bn,,,,0,133,MTproc,,,
FL_Personenaufg._V1,33,24,right,female,54,,MT,im,,,,0,67,MTproc,,,
FL_Personenaufg._V1,33,24,right,female,54,,MT,nn,,,,0,188,MTproc,,,
FL_Personenaufg._V1,33,24,right,female,54,,MT,mn,,,,0,3,MTproc,,,
FL_Personenaufg._V1,33,24,right,female,54,,MT,im,,,,1,333,MTproc,,,
FL_Personenaufg._V1,33,24,right,female,54,,MT,mm,,,,0,122,MTproc,,,
FL_Personenaufg._V1,33,24,right,female,54,,MT,in,,,,0,385,MTproc,,,
FL_Personenaufg._V1,33,24,right,female,54,,MT,mm,,,,0,0,MTproc,,,
FL_Personenaufg._V1,33,24,right,female,54,,MT,mn,,,,1,395,MTproc,,,
FL_Personenaufg._V1,33,24,right,female,54,,MT,in,,,,0,326,MTproc,,,
FL_Personenaufg._V1,33,24,right,female,54,,MT,nm,,,,1,436,MTproc,,,
FL_Personenaufg._V1,33,24,right,female,54,,MT,bm,,,,1,485,MTproc,,,
FL_Personenaufg._V1,33,24,right,female,54,,MT,bm,,,,1,403,MTproc,,,
FL_Personenaufg._V1,33,24,right,female,54,,MT,in,,,,1,477,MTproc,,,
FL_Personenaufg._V1,33,24,right,female,54,,MT,bn,,,,0,364,MTproc,,,
FL_Personenaufg._V1,33,24,right,female,54,,MT,nn,,,,1,143,MTproc,,,
FL_Personenaufg._V1,33,24,right,female,54,,MT,nn,,,,0,70,MTproc,,,
FL_Personenaufg._V1,33,24,right,female,54,,MT,im,,,,1,126,MTproc,,,
FL_Personenaufg._V1,33,24,right,female,54,,MT,mn,,,,0,293,MTproc,,,
FL_Personenaufg._V1,33,24,right,female,54,,MT,mn,,,,0,0,MTproc,,,
FL_Personenaufg._V1,33,24,right,female,54,,MT,mm,,,,0,0,MTproc,,,
FL_Personenaufg._V1,33,24,right,female,54,,MT,bm,,,,1,421,MTproc,,,
FL_Personenaufg._V1,33,24,right,female,54,,MT,bn,,,,0,206,MTproc,,,
FL_Personenaufg._V1,33,24,right,female,54,,MT,bm,,,,0,0,MTproc,,,
FL_Personenaufg._V1,33,24,right,female,54,,MT,bn,,,,0,0,MTproc,,,
FL_Personenaufg._V1,33,24,right,female,54,,MT,im,,,,0,0,MTproc,,,
FL_Personenaufg._V1,33,24,right,female,54,,MT,mm,,,,1,145,MTproc,,,
FL_Personenaufg._V1,33,24,right,female,54,,MT,nm,,,,1,527,MTproc,,,
FL_Personenaufg._V1,33,24,right,female,54,,MT,nm,,,,1,220,MTproc,,,
FL_Personenaufg._V1,33,24,right,female,54,,MT,im,,,,1,63,MTproc,,,
FL_Personenaufg._V1,33,24,right,female,54,,MT,in,,,,0,216,MTproc,,,
FL_Personenaufg._V1,33,24,right,female,54,,MT,mm,,,,0,0,MTproc,,,
FL_Personenaufg._V1,33,24,right,female,54,,MT,bm,,,,0,250,MTproc,,,
FL_Personenaufg._V1,33,24,right,female,54,,MT,mn,,,,0,1243,MTproc,,,
FL_Personenaufg._V1,33,24,right,female,54,,MT,nm,,,,1,526,MTproc,,,
FL_Personenaufg._V1,33,24,right,female,54,,MT,nn,,,,1,499,MTproc,,,
FL_Personenaufg._V1,33,24,right,female,54,,MT,im,,,,1,321,MTproc,,,
FL_Personenaufg._V1,5,19,right,female,50,,MT,mn,,,,0,560,MTproc,,,
FL_Personenaufg._V1,5,19,right,female,50,,MT,nm,,,,0,492,MTproc,,,
FL_Personenaufg._V1,5,19,right,female,50,,MT,bm,,,,1,466,MTproc,,,
FL_Personenaufg._V1,5,19,right,female,50,,MT,im,,,,1,544,MTproc,,,
FL_Personenaufg._V1,5,19,right,female,50,,MT,bm,,,,0,268,MTproc,,,
FL_Personenaufg._V1,5,19,right,female,50,,MT,mm,,,,1,284,MTproc,,,
FL_Personenaufg._V1,5,19,right,female,50,,MT,im,,,,0,275,MTproc,,,
FL_Personenaufg._V1,5,19,right,female,50,,MT,nm,,,,1,468,MTproc,,,
FL_Personenaufg._V1,5,19,right,female,50,,MT,mm,,,,0,347,MTproc,,,
FL_Personenaufg._V1,5,19,right,female,50,,MT,bm,,,,0,568,MTproc,,,
FL_Personenaufg._V1,5,19,right,female,50,,MT,bn,,,,0,418,MTproc,,,
FL_Personenaufg._V1,5,19,right,female,50,,MT,im,,,,1,419,MTproc,,,
FL_Personenaufg._V1,5,19,right,female,50,,MT,bn,,,,0,293,MTproc,,,
FL_Personenaufg._V1,5,19,right,female,50,,MT,mn,,,,1,324,MTproc,,,
FL_Personenaufg._V1,5,19,right,female,50,,MT,nm,,,,0,578,MTproc,,,
FL_Personenaufg._V1,5,19,right,female,50,,MT,nn,,,,0,747,MTproc,,,
FL_Personenaufg._V1,5,19,right,female,50,,MT,nn,,,,1,430,MTproc,,,
FL_Personenaufg._V1,5,19,right,female,50,,MT,im,,,,1,431,MTproc,,,
FL_Personenaufg._V1,5,19,right,female,50,,MT,bn,,,,1,553,MTproc,,,
FL_Personenaufg._V1,5,19,right,female,50,,MT,mm,,,,1,508,MTproc,,,
FL_Personenaufg._V1,5,19,right,female,50,,MT,in,,,,0,393,MTproc,,,
FL_Personenaufg._V1,5,19,right,female,50,,MT,in,,,,0,484,MTproc,,,
FL_Personenaufg._V1,5,19,right,female,50,,MT,nn,,,,1,578,MTproc,,,
FL_Personenaufg._V1,5,19,right,female,50,,MT,mn,,,,0,676,MTproc,,,
FL_Personenaufg._V1,5,19,right,female,50,,MT,im,,,,1,498,MTproc,,,
FL_Personenaufg._V1,5,19,right,female,50,,MT,nm,,,,0,519,MTproc,,,
FL_Personenaufg._V1,5,19,right,female,50,,MT,bm,,,,1,708,MTproc,,,
FL_Personenaufg._V1,5,19,right,female,50,,MT,in,,,,1,640,MTproc,,,
FL_Personenaufg._V1,5,19,right,female,50,,MT,mn,,,,1,592,MTproc,,,
FL_Personenaufg._V1,5,19,right,female,50,,MT,nn,,,,1,625,MTproc,,,
FL_Personenaufg._V1,5,19,right,female,50,,MT,im,,,,1,489,MTproc,,,
FL_Personenaufg._V1,5,19,right,female,50,,MT,mm,,,,1,655,MTproc,,,
FL_Personenaufg._V1,5,19,right,female,50,,MT,nn,,,,1,470,MTproc,,,
FL_Personenaufg._V1,5,19,right,female,50,,MT,mm,,,,1,693,MTproc,,,
FL_Personenaufg._V1,5,19,right,female,50,,MT,bm,,,,1,538,MTproc,,,
FL_Personenaufg._V1,5,19,right,female,50,,MT,bm,,,,1,398,MTproc,,,
FL_Personenaufg._V1,5,19,right,female,50,,MT,im,,,,1,783,MTproc,,,
FL_Personenaufg._V1,5,19,right,female,50,,MT,nn,,,,0,511,MTproc,,,
FL_Personenaufg._V1,5,19,right,female,50,,MT,mm,,,,1,565,MTproc,,,
FL_Personenaufg._V1,5,19,right,female,50,,MT,bn,,,,1,624,MTproc,,,
FL_Personenaufg._V1,5,19,right,female,50,,MT,bn,,,,0,688,MTproc,,,
FL_Personenaufg._V1,5,19,right,female,50,,MT,mn,,,,1,581,MTproc,,,
FL_Personenaufg._V1,5,19,right,female,50,,MT,im,,,,1,551,MTproc,,,
FL_Personenaufg._V1,5,19,right,female,50,,MT,nm,,,,0,506,MTproc,,,
FL_Personenaufg._V1,5,19,right,female,50,,MT,in,,,,1,487,MTproc,,,
FL_Personenaufg._V1,5,19,right,female,50,,MT,bn,,,,0,573,MTproc,,,
FL_Personenaufg._V1,5,19,right,female,50,,MT,nm,,,,0,591,MTproc,,,
FL_Personenaufg._V1,5,19,right,female,50,,MT,mn,,,,1,600,MTproc,,,
FL_Personenaufg._V1,5,19,right,female,52,,MT,bm,,,,0,777,MTproc,,,
FL_Personenaufg._V1,5,19,right,female,52,,MT,nm,,,,0,609,MTproc,,,
FL_Personenaufg._V1,5,19,right,female,52,,MT,mn,,,,1,714,MTproc,,,
FL_Personenaufg._V1,5,19,right,female,52,,MT,nn,,,,1,550,MTproc,,,
FL_Personenaufg._V1,5,19,right,female,52,,MT,bm,,,,1,729,MTproc,,,
FL_Personenaufg._V1,5,19,right,female,52,,MT,nn,,,,1,676,MTproc,,,
FL_Personenaufg._V1,5,19,right,female,52,,MT,nn,,,,1,434,MTproc,,,
FL_Personenaufg._V1,5,19,right,female,52,,MT,im,,,,1,387,MTproc,,,
FL_Personenaufg._V1,5,19,right,female,52,,MT,nm,,,,0,965,MTproc,,,
FL_Personenaufg._V1,5,19,right,female,52,,MT,im,,,,1,549,MTproc,,,
FL_Personenaufg._V1,5,19,right,female,52,,MT,mn,,,,1,600,MTproc,,,
FL_Personenaufg._V1,5,19,right,female,52,,MT,im,,,,0,448,MTproc,,,
FL_Personenaufg._V1,5,19,right,female,52,,MT,bn,,,,1,656,MTproc,,,
FL_Personenaufg._V1,5,19,right,female,52,,MT,mm,,,,1,631,MTproc,,,
FL_Personenaufg._V1,5,19,right,female,52,,MT,bm,,,,1,566,MTproc,,,
FL_Personenaufg._V1,5,19,right,female,52,,MT,im,,,,1,344,MTproc,,,
FL_Personenaufg._V1,5,19,right,female,52,,MT,mn,,,,0,701,MTproc,,,
FL_Personenaufg._V1,5,19,right,female,52,,MT,nm,,,,0,474,MTproc,,,
FL_Personenaufg._V1,5,19,right,female,52,,MT,in,,,,1,1321,MTproc,,,
FL_Personenaufg._V1,5,19,right,female,52,,MT,bn,,,,1,689,MTproc,,,
FL_Personenaufg._V1,5,19,right,female,52,,MT,in,,,,0,398,MTproc,,,
FL_Personenaufg._V1,5,19,right,female,52,,MT,mm,,,,1,464,MTproc,,,
FL_Personenaufg._V1,5,19,right,female,52,,MT,mm,,,,0,687,MTproc,,,
FL_Personenaufg._V1,5,19,right,female,52,,MT,bn,,,,1,1076,MTproc,,,
FL_Personenaufg._V1,5,19,right,female,52,,MT,bn,,,,1,831,MTproc,,,
FL_Personenaufg._V1,5,19,right,female,52,,MT,bm,,,,1,773,MTproc,,,
FL_Personenaufg._V1,5,19,right,female,52,,MT,im,,,,1,606,MTproc,,,
FL_Personenaufg._V1,5,19,right,female,52,,MT,mn,,,,1,607,MTproc,,,
FL_Personenaufg._V1,5,19,right,female,52,,MT,nm,,,,1,480,MTproc,,,
FL_Personenaufg._V1,5,19,right,female,52,,MT,mn,,,,1,695,MTproc,,,
