ExperimentName,Subject,Age,hand,Sex,Block,flanker,fl.ACC,fl.RT,Procedure[Trial],target,FLform,Tform,FLbed,MT4.ACC,MT4.RT,Bed[Trial],bed
FL_normal_V1,1,20,right,female,1,,,,,,,,,,,,mm
FL_normal_V1,1,20,right,female,2,,,,,,,,,,,,mm
FL_normal_V1,1,20,right,female,3,,,,,,,,,,,,bn
FL_normal_V1,1,20,right,female,4,,,,,,,,,,,,bm
FL_normal_V1,1,20,right,female,5,,,,,,,,,,,,im
FL_normal_V1,1,20,right,female,6,,,,,,,,,,,,bn
FL_normal_V1,1,20,right,female,7,,,,,,,,,,,,mn
FL_normal_V1,1,20,right,female,8,,,,,,,,,,,,im
FL_normal_V1,1,20,right,female,9,,,,,,,,,,,,in
FL_normal_V1,1,20,right,female,10,,,,,,,,,,,,bm
FL_normal_V1,1,20,right,female,11,,,,,,,,,,,,in
FL_normal_V1,1,20,right,female,12,,,,,,,,,,,,mn
FL_normal_V1,1,20,right,female,13,,,,,,,,,,,,bn
FL_normal_V1,1,20,right,female,14,,,,,,,,,,,,mn
FL_normal_V1,1,20,right,female,15,,,,,,,,,,,,im
FL_normal_V1,1,20,right,female,16,,,,,,,,,,,,mn
FL_normal_V1,1,20,right,female,17,,,,,,,,,,,,im
FL_normal_V1,1,20,right,female,18,,,,,,,,,,,,bm
FL_normal_V1,1,20,right,female,19,,,,,,,,,,,,mm
FL_normal_V1,1,20,right,female,20,,,,,,,,,,,,bn
FL_normal_V1,1,20,right,female,21,,,,,,,,,,,,in
FL_normal_V1,1,20,right,female,22,,,,,,,,,,,,bm
FL_normal_V1,1,20,right,female,23,,,,,,,,,,,,in
FL_normal_V1,1,20,right,female,24,,,,,,,,,,,,mm
FL_normal_V1,1,20,right,female,25,,,,,,,,,,,,in
FL_normal_V1,1,20,right,female,26,,,,,,,,,,,,im
FL_normal_V1,1,20,right,female,27,,,,,,,,,,,,bm
FL_normal_V1,1,20,right,female,28,,,,,,,,,,,,bn
FL_normal_V1,1,20,right,female,29,,,,,,,,,,,,mn
FL_normal_V1,1,20,right,female,30,,,,,,,,,,,,bn
FL_normal_V1,1,20,right,female,31,,,,,,,,,,,,mm
FL_normal_V1,1,20,right,female,32,,,,,,,,,,,,mm
FL_normal_V1,1,20,right,female,33,,,,,,,,,,,,bm
FL_normal_V1,1,20,right,female,34,,,,,,,,,,,,im
FL_normal_V1,1,20,right,female,35,,,,,,,,,,,,in
FL_normal_V1,1,20,right,female,36,,,,,,,,,,,,mn
FL_normal_V1,1,20,right,female,37,,,,,,,,,,,,bn
FL_normal_V1,1,20,right,female,38,,,,,,,,,,,,in
FL_normal_V1,1,20,right,female,39,,,,,,,,,,,,im
FL_normal_V1,1,20,right,female,40,,,,,,,,,,,,in
FL_normal_V1,1,20,right,female,41,,,,,,,,,,,,bn
FL_normal_V1,1,20,right,female,42,,,,,,,,,,,,mm
FL_normal_V1,1,20,right,female,43,,,,,,,,,,,,mn
FL_normal_V1,1,20,right,female,44,,,,,,,,,,,,bm
FL_normal_V1,1,20,right,female,45,,,,,,,,,,,,im
FL_normal_V1,1,20,right,female,46,,,,,,,,,,,,mn
FL_normal_V1,1,20,right,female,47,,,,,,,,,,,,bm
FL_normal_V1,1,20,right,female,48,,,,,,,,,,,,mm
FL_normal_V1,1,20,right,female,49,Ich,0,1899,FLproc,Mutter,Dreieck.png,Quadrat.png,comp,,,,
FL_normal_V1,1,20,right,female,49,Mutter,1,1282,FLproc,none,Quadrat.png,Kreuz.png,incomp,,,,
FL_normal_V1,1,20,right,female,49,Bekannter,1,1358,FLproc,Mutter,Kreis.png,Quadrat.png,incomp,,,,
FL_normal_V1,1,20,right,female,49,none,1,725,FLproc,Mutter,Kreuz.png,Quadrat.png,incomp,,,,
FL_normal_V1,1,20,right,female,49,none,1,906,FLproc,Ich,Kreuz.png,Dreieck.png,incomp,,,,
FL_normal_V1,1,20,right,female,49,Mutter,1,854,FLproc,Mutter,Quadrat.png,Quadrat.png,comp,,,,
FL_normal_V1,1,20,right,female,49,Ich,1,660,FLproc,Bekannter,Dreieck.png,Kreis.png,incomp,,,,
FL_normal_V1,1,20,right,female,49,Bekannter,0,571,FLproc,Bekannter,Kreis.png,Kreis.png,comp,,,,
FL_normal_V1,1,20,right,female,49,Bekannter,1,751,FLproc,Ich,Kreis.png,Dreieck.png,incomp,,,,
FL_normal_V1,1,20,right,female,49,Ich,1,442,FLproc,Ich,Dreieck.png,Dreieck.png,comp,,,,
FL_normal_V1,1,20,right,female,49,none,1,691,FLproc,none,Kreuz.png,Kreuz.png,comp,,,,
FL_normal_V1,1,20,right,female,49,Bekannter,1,546,FLproc,none,Kreis.png,Kreuz.png,comp,,,,
FL_normal_V1,1,20,right,female,49,Ich,1,742,FLproc,none,Dreieck.png,Kreuz.png,incomp,,,,
FL_normal_V1,1,20,right,female,49,none,1,1106,FLproc,Bekannter,Kreuz.png,Kreis.png,comp,,,,
FL_normal_V1,1,20,right,female,49,Mutter,0,797,FLproc,Bekannter,Quadrat.png,Kreis.png,incomp,,,,
FL_normal_V1,1,20,right,female,49,Mutter,1,1070,FLproc,Ich,Quadrat.png,Dreieck.png,comp,,,,
FL_normal_V1,1,20,right,female,49,Ich,1,603,FLproc,Bekannter,Dreieck.png,Kreis.png,incomp,,,,
FL_normal_V1,1,20,right,female,49,Ich,1,613,FLproc,Ich,Dreieck.png,Dreieck.png,comp,,,,
FL_normal_V1,1,20,right,female,49,Bekannter,1,534,FLproc,Ich,Kreis.png,Dreieck.png,incomp,,,,
FL_normal_V1,1,20,right,female,49,Bekannter,1,499,FLproc,none,Kreis.png,Kreuz.png,comp,,,,
FL_normal_V1,1,20,right,female,49,Ich,1,626,FLproc,none,Dreieck.png,Kreuz.png,incomp,,,,
FL_normal_V1,1,20,right,female,49,none,1,715,FLproc,Ich,Kreuz.png,Dreieck.png,incomp,,,,
FL_normal_V1,1,20,right,female,49,Ich,1,864,FLproc,Mutter,Dreieck.png,Quadrat.png,comp,,,,
FL_normal_V1,1,20,right,female,49,Mutter,1,517,FLproc,Ich,Quadrat.png,Dreieck.png,comp,,,,
FL_normal_V1,1,20,right,female,49,Mutter,1,531,FLproc,Mutter,Quadrat.png,Quadrat.png,comp,,,,
FL_normal_V1,1,20,right,female,49,Mutter,1,504,FLproc,none,Quadrat.png,Kreuz.png,incomp,,,,
FL_normal_V1,1,20,right,female,49,none,1,679,FLproc,Bekannter,Kreuz.png,Kreis.png,comp,,,,
FL_normal_V1,1,20,right,female,49,Bekannter,1,630,FLproc,Mutter,Kreis.png,Quadrat.png,incomp,,,,
FL_normal_V1,1,20,right,female,49,Mutter,1,695,FLproc,Bekannter,Quadrat.png,Kreis.png,incomp,,,,
FL_normal_V1,1,20,right,female,49,none,1,1037,FLproc,Mutter,Kreuz.png,Quadrat.png,incomp,,,,
FL_normal_V1,1,20,right,female,49,none,1,459,FLproc,none,Kreuz.png,Kreuz.png,comp,,,,
FL_normal_V1,1,20,right,female,49,Bekannter,1,612,FLproc,Bekannter,Kreis.png,Kreis.png,comp,,,,
FL_normal_V1,1,20,right,female,49,none,1,486,FLproc,none,Kreuz.png,Kreuz.png,comp,,,,
FL_normal_V1,1,20,right,female,49,Ich,1,462,FLproc,none,Dreieck.png,Kreuz.png,incomp,,,,
FL_normal_V1,1,20,right,female,49,none,1,534,FLproc,Mutter,Kreuz.png,Quadrat.png,incomp,,,,
FL_normal_V1,1,20,right,female,49,none,1,620,FLproc,Ich,Kreuz.png,Dreieck.png,incomp,,,,
FL_normal_V1,1,20,right,female,49,Mutter,1,637,FLproc,Mutter,Quadrat.png,Quadrat.png,comp,,,,
FL_normal_V1,1,20,right,female,49,Mutter,1,461,FLproc,none,Quadrat.png,Kreuz.png,incomp,,,,
FL_normal_V1,1,20,right,female,49,Bekannter,1,518,FLproc,Ich,Kreis.png,Dreieck.png,incomp,,,,
FL_normal_V1,1,20,right,female,49,Mutter,1,812,FLproc,Bekannter,Quadrat.png,Kreis.png,incomp,,,,
FL_normal_V1,1,20,right,female,49,Bekannter,1,533,FLproc,Mutter,Kreis.png,Quadrat.png,incomp,,,,
FL_normal_V1,1,20,right,female,49,Ich,1,617,FLproc,Bekannter,Dreieck.png,Kreis.png,incomp,,,,
FL_normal_V1,1,20,right,female,49,none,1,482,FLproc,Bekannter,Kreuz.png,Kreis.png,comp,,,,
FL_normal_V1,1,20,right,female,49,Ich,1,594,FLproc,Mutter,Dreieck.png,Quadrat.png,comp,,,,
FL_normal_V1,1,20,right,female,49,Bekannter,1,492,FLproc,none,Kreis.png,Kreuz.png,comp,,,,
FL_normal_V1,1,20,right,female,49,Bekannter,1,516,FLproc,Bekannter,Kreis.png,Kreis.png,comp,,,,
FL_normal_V1,1,20,right,female,49,Mutter,1,506,FLproc,Ich,Quadrat.png,Dreieck.png,comp,,,,
FL_normal_V1,1,20,right,female,49,Ich,1,728,FLproc,Ich,Dreieck.png,Dreieck.png,comp,,,,
FL_normal_V1,1,20,right,female,50,,,,MTproc,,,,,1,953,bn,
FL_normal_V1,1,20,right,female,50,,,,MTproc,,,,,1,730,mn,
FL_normal_V1,1,20,right,female,50,,,,MTproc,,,,,1,373,mm,
FL_normal_V1,1,20,right,female,50,,,,MTproc,,,,,1,617,im,
FL_normal_V1,1,20,right,female,50,,,,MTproc,,,,,1,624,mn,
FL_normal_V1,1,20,right,female,50,,,,MTproc,,,,,1,624,in,
FL_normal_V1,1,20,right,female,50,,,,MTproc,,,,,1,648,bm,
FL_normal_V1,1,20,right,female,50,,,,MTproc,,,,,1,542,mm,
FL_normal_V1,1,20,right,female,50,,,,MTproc,,,,,1,522,in,
FL_normal_V1,1,20,right,female,50,,,,MTproc,,,,,1,679,bn,
FL_normal_V1,1,20,right,female,50,,,,MTproc,,,,,1,501,im,
FL_normal_V1,1,20,right,female,50,,,,MTproc,,,,,1,538,bm,
FL_normal_V1,1,20,right,female,50,,,,MTproc,,,,,1,454,im,
FL_normal_V1,1,20,right,female,50,,,,MTproc,,,,,1,478,mm,
FL_normal_V1,1,20,right,female,50,,,,MTproc,,,,,1,660,bn,
FL_normal_V1,1,20,right,female,50,,,,MTproc,,,,,1,859,bm,
FL_normal_V1,1,20,right,female,50,,,,MTproc,,,,,1,368,im,
FL_normal_V1,1,20,right,female,50,,,,MTproc,,,,,1,636,in,
FL_normal_V1,1,20,right,female,50,,,,MTproc,,,,,1,667,mn,
FL_normal_V1,1,20,right,female,50,,,,MTproc,,,,,1,656,in,
FL_normal_V1,1,20,right,female,50,,,,MTproc,,,,,1,510,bm,
FL_normal_V1,1,20,right,female,50,,,,MTproc,,,,,0,500,bn,
FL_normal_V1,1,20,right,female,50,,,,MTproc,,,,,1,482,mm,
FL_normal_V1,1,20,right,female,50,,,,MTproc,,,,,1,585,mn,
FL_normal_V1,1,20,right,female,50,,,,MTproc,,,,,1,530,mm,
FL_normal_V1,1,20,right,female,50,,,,MTproc,,,,,1,639,bn,
FL_normal_V1,1,20,right,female,50,,,,MTproc,,,,,0,534,in,
FL_normal_V1,1,20,right,female,50,,,,MTproc,,,,,0,458,bn,
FL_normal_V1,1,20,right,female,50,,,,MTproc,,,,,1,450,im,
FL_normal_V1,1,20,right,female,50,,,,MTproc,,,,,0,658,bm,
FL_normal_V1,1,20,right,female,50,,,,MTproc,,,,,1,768,in,
FL_normal_V1,1,20,right,female,50,,,,MTproc,,,,,1,497,mm,
FL_normal_V1,1,20,right,female,50,,,,MTproc,,,,,1,623,mn,
FL_normal_V1,1,20,right,female,50,,,,MTproc,,,,,1,711,mn,
FL_normal_V1,1,20,right,female,50,,,,MTproc,,,,,1,460,im,
FL_normal_V1,1,20,right,female,50,,,,MTproc,,,,,1,722,bm,
FL_normal_V1,1,20,right,female,50,,,,MTproc,,,,,1,550,mm,
FL_normal_V1,1,20,right,female,50,,,,MTproc,,,,,1,465,im,
FL_normal_V1,1,20,right,female,50,,,,MTproc,,,,,1,472,mn,
FL_normal_V1,1,20,right,female,50,,,,MTproc,,,,,0,591,bn,
FL_normal_V1,1,20,right,female,50,,,,MTproc,,,,,1,576,in,
FL_normal_V1,1,20,right,female,50,,,,MTproc,,,,,1,595,bn,
FL_normal_V1,1,20,right,female,50,,,,MTproc,,,,,1,1044,in,
FL_normal_V1,1,20,right,female,50,,,,MTproc,,,,,1,745,bm,
FL_normal_V1,1,20,right,female,50,,,,MTproc,,,,,1,732,mm,
FL_normal_V1,1,20,right,female,50,,,,MTproc,,,,,1,1039,mn,
FL_normal_V1,1,20,right,female,50,,,,MTproc,,,,,1,548,im,
FL_normal_V1,1,20,right,female,50,,,,MTproc,,,,,0,768,bm,
FL_normal_V1,1,20,right,female,51,none,1,580,FLproc,Ich,Kreuz.png,Dreieck.png,incomp,,,,
FL_normal_V1,1,20,right,female,51,Ich,1,399,FLproc,Ich,Dreieck.png,Dreieck.png,comp,,,,
FL_normal_V1,1,20,right,female,51,Ich,1,434,FLproc,none,Dreieck.png,Kreuz.png,incomp,,,,
FL_normal_V1,1,20,right,female,51,none,1,612,FLproc,Bekannter,Kreuz.png,Kreis.png,comp,,,,
FL_normal_V1,1,20,right,female,51,Mutter,1,382,FLproc,none,Quadrat.png,Kreuz.png,incomp,,,,
FL_normal_V1,1,20,right,female,51,Mutter,0,482,FLproc,Bekannter,Quadrat.png,Kreis.png,incomp,,,,
FL_normal_V1,1,20,right,female,51,Bekannter,1,554,FLproc,Ich,Kreis.png,Dreieck.png,incomp,,,,
FL_normal_V1,1,20,right,female,51,Mutter,1,518,FLproc,Ich,Quadrat.png,Dreieck.png,comp,,,,
FL_normal_V1,1,20,right,female,51,Ich,1,556,FLproc,Bekannter,Dreieck.png,Kreis.png,incomp,,,,
FL_normal_V1,1,20,right,female,51,Bekannter,1,408,FLproc,Bekannter,Kreis.png,Kreis.png,comp,,,,
FL_normal_V1,1,20,right,female,51,Bekannter,1,459,FLproc,none,Kreis.png,Kreuz.png,comp,,,,
FL_normal_V1,1,20,right,female,51,none,1,572,FLproc,Mutter,Kreuz.png,Quadrat.png,incomp,,,,
FL_normal_V1,1,20,right,female,51,Mutter,1,592,FLproc,Mutter,Quadrat.png,Quadrat.png,comp,,,,
FL_normal_V1,1,20,right,female,51,none,1,483,FLproc,none,Kreuz.png,Kreuz.png,comp,,,,
FL_normal_V1,1,20,right,female,51,Ich,1,489,FLproc,Mutter,Dreieck.png,Quadrat.png,comp,,,,
FL_normal_V1,1,20,right,female,51,Bekannter,1,528,FLproc,Mutter,Kreis.png,Quadrat.png,incomp,,,,
FL_normal_V1,1,20,right,female,51,Ich,1,494,FLproc,none,Dreieck.png,Kreuz.png,incomp,,,,
FL_normal_V1,1,20,right,female,51,Bekannter,1,462,FLproc,none,Kreis.png,Kreuz.png,comp,,,,
FL_normal_V1,1,20,right,female,51,Mutter,1,615,FLproc,Ich,Quadrat.png,Dreieck.png,comp,,,,
FL_normal_V1,1,20,right,female,51,none,1,512,FLproc,none,Kreuz.png,Kreuz.png,comp,,,,
FL_normal_V1,1,20,right,female,51,none,1,463,FLproc,Bekannter,Kreuz.png,Kreis.png,comp,,,,
FL_normal_V1,1,20,right,female,51,Ich,1,495,FLproc,Mutter,Dreieck.png,Quadrat.png,comp,,,,
FL_normal_V1,1,20,right,female,51,Bekannter,1,599,FLproc,Mutter,Kreis.png,Quadrat.png,incomp,,,,
FL_normal_V1,1,20,right,female,51,Mutter,1,393,FLproc,none,Quadrat.png,Kreuz.png,incomp,,,,
FL_normal_V1,1,20,right,female,51,none,1,661,FLproc,Mutter,Kreuz.png,Quadrat.png,incomp,,,,
FL_normal_V1,1,20,right,female,51,Mutter,1,525,FLproc,Mutter,Quadrat.png,Quadrat.png,comp,,,,
FL_normal_V1,1,20,right,female,51,Ich,1,491,FLproc,Bekannter,Dreieck.png,Kreis.png,incomp,,,,
FL_normal_V1,1,20,right,female,51,Ich,1,626,FLproc,Ich,Dreieck.png,Dreieck.png,comp,,,,
FL_normal_V1,1,20,right,female,51,none,1,651,FLproc,Ich,Kreuz.png,Dreieck.png,incomp,,,,
FL_normal_V1,1,20,right,female,51,Bekannter,1,435,FLproc,Bekannter,Kreis.png,Kreis.png,comp,,,,
FL_normal_V1,1,20,right,female,51,Mutter,1,421,FLproc,Bekannter,Quadrat.png,Kreis.png,incomp,,,,
FL_normal_V1,1,20,right,female,51,Bekannter,1,575,FLproc,Ich,Kreis.png,Dreieck.png,incomp,,,,
FL_normal_V1,1,20,right,female,51,none,0,466,FLproc,Ich,Kreuz.png,Dreieck.png,incomp,,,,
FL_normal_V1,1,20,right,female,51,Ich,1,578,FLproc,Mutter,Dreieck.png,Quadrat.png,comp,,,,
FL_normal_V1,1,20,right,female,51,Ich,1,661,FLproc,Ich,Dreieck.png,Dreieck.png,comp,,,,
FL_normal_V1,1,20,right,female,51,Mutter,1,477,FLproc,Mutter,Quadrat.png,Quadrat.png,comp,,,,
FL_normal_V1,1,20,right,female,51,Ich,1,493,FLproc,none,Dreieck.png,Kreuz.png,incomp,,,,
FL_normal_V1,1,20,right,female,51,none,1,461,FLproc,Bekannter,Kreuz.png,Kreis.png,comp,,,,
FL_normal_V1,1,20,right,female,51,Bekannter,1,502,FLproc,none,Kreis.png,Kreuz.png,comp,,,,
FL_normal_V1,1,20,right,female,51,none,1,492,FLproc,none,Kreuz.png,Kreuz.png,comp,,,,
FL_normal_V1,1,20,right,female,51,Mutter,1,396,FLproc,none,Quadrat.png,Kreuz.png,incomp,,,,
FL_normal_V1,1,20,right,female,51,Mutter,1,568,FLproc,Bekannter,Quadrat.png,Kreis.png,incomp,,,,
FL_normal_V1,1,20,right,female,51,Bekannter,1,515,FLproc,Ich,Kreis.png,Dreieck.png,incomp,,,,
FL_normal_V1,1,20,right,female,51,Bekannter,1,473,FLproc,Bekannter,Kreis.png,Kreis.png,comp,,,,
FL_normal_V1,1,20,right,female,51,Bekannter,1,433,FLproc,Mutter,Kreis.png,Quadrat.png,incomp,,,,
FL_normal_V1,1,20,right,female,51,none,1,539,FLproc,Mutter,Kreuz.png,Quadrat.png,incomp,,,,
FL_normal_V1,1,20,right,female,51,Ich,1,496,FLproc,Bekannter,Dreieck.png,Kreis.png,incomp,,,,
FL_normal_V1,1,20,right,female,51,Mutter,1,655,FLproc,Ich,Quadrat.png,Dreieck.png,comp,,,,
FL_normal_V1,1,20,right,female,52,,,,MTproc,,,,,1,327,im,
FL_normal_V1,1,20,right,female,52,,,,MTproc,,,,,1,613,mn,
FL_normal_V1,1,20,right,female,52,,,,MTproc,,,,,1,590,in,
FL_normal_V1,1,20,right,female,52,,,,MTproc,,,,,1,608,mm,
FL_normal_V1,1,20,right,female,52,,,,MTproc,,,,,1,520,mm,
FL_normal_V1,1,20,right,female,52,,,,MTproc,,,,,1,525,bm,
FL_normal_V1,1,20,right,female,52,,,,MTproc,,,,,1,362,im,
FL_normal_V1,1,20,right,female,52,,,,MTproc,,,,,1,741,bm,
FL_normal_V1,1,20,right,female,52,,,,MTproc,,,,,1,600,mn,
FL_normal_V1,1,20,right,female,52,,,,MTproc,,,,,0,577,bn,
FL_normal_V1,1,20,right,female,52,,,,MTproc,,,,,1,563,bn,
FL_normal_V1,1,20,right,female,52,,,,MTproc,,,,,1,949,in,
FL_normal_V1,1,20,right,female,52,,,,MTproc,,,,,1,503,mm,
FL_normal_V1,1,20,right,female,52,,,,MTproc,,,,,1,620,mn,
FL_normal_V1,1,20,right,female,52,,,,MTproc,,,,,1,524,in,
FL_normal_V1,1,20,right,female,52,,,,MTproc,,,,,1,321,bm,
FL_normal_V1,1,20,right,female,52,,,,MTproc,,,,,1,639,bm,
FL_normal_V1,1,20,right,female,52,,,,MTproc,,,,,1,414,im,
FL_normal_V1,1,20,right,female,52,,,,MTproc,,,,,1,592,bn,
FL_normal_V1,1,20,right,female,52,,,,MTproc,,,,,1,521,mm,
FL_normal_V1,1,20,right,female,52,,,,MTproc,,,,,1,462,im,
FL_normal_V1,1,20,right,female,52,,,,MTproc,,,,,1,574,bn,
FL_normal_V1,1,20,right,female,52,,,,MTproc,,,,,1,648,in,
FL_normal_V1,1,20,right,female,52,,,,MTproc,,,,,1,631,mn,
FL_normal_V1,1,20,right,female,52,,,,MTproc,,,,,1,382,im,
FL_normal_V1,1,20,right,female,52,,,,MTproc,,,,,1,529,mn,
FL_normal_V1,1,20,right,female,52,,,,MTproc,,,,,1,581,bm,
FL_normal_V1,1,20,right,female,52,,,,MTproc,,,,,1,582,in,
FL_normal_V1,1,20,right,female,52,,,,MTproc,,,,,1,575,mm,
FL_normal_V1,1,20,right,female,52,,,,MTproc,,,,,1,570,bn,
FL_normal_V1,1,20,right,female,52,,,,MTproc,,,,,1,468,mn,
FL_normal_V1,1,20,right,female,52,,,,MTproc,,,,,1,459,bm,
FL_normal_V1,1,20,right,female,52,,,,MTproc,,,,,1,555,mm,
FL_normal_V1,1,20,right,female,52,,,,MTproc,,,,,1,662,in,
FL_normal_V1,1,20,right,female,52,,,,MTproc,,,,,1,468,im,
FL_normal_V1,1,20,right,female,52,,,,MTproc,,,,,1,443,bn,
FL_normal_V1,1,20,right,female,52,,,,MTproc,,,,,1,564,in,
FL_normal_V1,1,20,right,female,52,,,,MTproc,,,,,1,550,mm,
FL_normal_V1,1,20,right,female,52,,,,MTproc,,,,,0,425,mm,
FL_normal_V1,1,20,right,female,52,,,,MTproc,,,,,1,498,im,
FL_normal_V1,1,20,right,female,52,,,,MTproc,,,,,1,416,im,
FL_normal_V1,1,20,right,female,52,,,,MTproc,,,,,1,857,bm,
FL_normal_V1,1,20,right,female,52,,,,MTproc,,,,,1,502,bm,
FL_normal_V1,1,20,right,female,52,,,,MTproc,,,,,1,595,mn,
FL_normal_V1,1,20,right,female,52,,,,MTproc,,,,,1,652,mn,
FL_normal_V1,1,20,right,female,52,,,,MTproc,,,,,1,531,bn,
FL_normal_V1,1,20,right,female,52,,,,MTproc,,,,,1,615,in,
FL_normal_V1,1,20,right,female,52,,,,MTproc,,,,,1,655,bn,
FL_normal_V1,1,20,right,female,53,none,1,455,FLproc,none,Kreuz.png,Kreuz.png,comp,,,,
FL_normal_V1,1,20,right,female,53,Ich,1,392,FLproc,Mutter,Dreieck.png,Quadrat.png,comp,,,,
FL_normal_V1,1,20,right,female,53,Bekannter,1,380,FLproc,none,Kreis.png,Kreuz.png,comp,,,,
FL_normal_V1,1,20,right,female,53,Ich,0,456,FLproc,Ich,Dreieck.png,Dreieck.png,comp,,,,
FL_normal_V1,1,20,right,female,53,none,1,497,FLproc,Mutter,Kreuz.png,Quadrat.png,incomp,,,,
FL_normal_V1,1,20,right,female,53,none,0,400,FLproc,Bekannter,Kreuz.png,Kreis.png,comp,,,,
FL_normal_V1,1,20,right,female,53,Mutter,1,500,FLproc,Bekannter,Quadrat.png,Kreis.png,incomp,,,,
FL_normal_V1,1,20,right,female,53,Bekannter,1,418,FLproc,Mutter,Kreis.png,Quadrat.png,incomp,,,,
FL_normal_V1,1,20,right,female,53,Mutter,1,429,FLproc,Mutter,Quadrat.png,Quadrat.png,comp,,,,
FL_normal_V1,1,20,right,female,53,Bekannter,1,574,FLproc,Bekannter,Kreis.png,Kreis.png,comp,,,,
FL_normal_V1,1,20,right,female,53,Ich,1,458,FLproc,none,Dreieck.png,Kreuz.png,incomp,,,,
FL_normal_V1,1,20,right,female,53,none,1,395,FLproc,Ich,Kreuz.png,Dreieck.png,incomp,,,,
FL_normal_V1,1,20,right,female,53,Mutter,1,351,FLproc,none,Quadrat.png,Kreuz.png,incomp,,,,
FL_normal_V1,1,20,right,female,53,Bekannter,1,484,FLproc,Ich,Kreis.png,Dreieck.png,incomp,,,,
FL_normal_V1,1,20,right,female,53,Mutter,1,596,FLproc,Ich,Quadrat.png,Dreieck.png,comp,,,,
FL_normal_V1,1,20,right,female,53,Ich,1,542,FLproc,Bekannter,Dreieck.png,Kreis.png,incomp,,,,
FL_normal_V1,1,20,right,female,53,Mutter,1,603,FLproc,Bekannter,Quadrat.png,Kreis.png,incomp,,,,
FL_normal_V1,1,20,right,female,53,Ich,1,550,FLproc,Mutter,Dreieck.png,Quadrat.png,comp,,,,
FL_normal_V1,1,20,right,female,53,none,1,442,FLproc,Bekannter,Kreuz.png,Kreis.png,comp,,,,
FL_normal_V1,1,20,right,female,53,Bekannter,0,444,FLproc,Ich,Kreis.png,Dreieck.png,incomp,,,,
FL_normal_V1,1,20,right,female,53,none,1,525,FLproc,Ich,Kreuz.png,Dreieck.png,incomp,,,,
FL_normal_V1,1,20,right,female,53,Mutter,1,483,FLproc,none,Quadrat.png,Kreuz.png,incomp,,,,
FL_normal_V1,1,20,right,female,53,Ich,1,499,FLproc,Bekannter,Dreieck.png,Kreis.png,incomp,,,,
FL_normal_V1,1,20,right,female,53,Bekannter,1,449,FLproc,Mutter,Kreis.png,Quadrat.png,incomp,,,,
FL_normal_V1,1,20,right,female,53,Ich,0,418,FLproc,Ich,Dreieck.png,Dreieck.png,comp,,,,
FL_normal_V1,1,20,right,female,53,Mutter,0,413,FLproc,Ich,Quadrat.png,Dreieck.png,comp,,,,
FL_normal_V1,1,20,right,female,53,Bekannter,1,472,FLproc,Bekannter,Kreis.png,Kreis.png,comp,,,,
FL_normal_V1,1,20,right,female,53,none,1,408,FLproc,none,Kreuz.png,Kreuz.png,comp,,,,
FL_normal_V1,1,20,right,female,53,Ich,1,498,FLproc,none,Dreieck.png,Kreuz.png,incomp,,,,
FL_normal_V1,1,20,right,female,53,Bekannter,1,385,FLproc,none,Kreis.png,Kreuz.png,comp,,,,
FL_normal_V1,1,20,right,female,53,Mutter,1,501,FLproc,Mutter,Quadrat.png,Quadrat.png,comp,,,,
FL_normal_V1,1,20,right,female,53,none,1,364,FLproc,Mutter,Kreuz.png,Quadrat.png,incomp,,,,
FL_normal_V1,1,20,right,female,53,none,0,504,FLproc,Ich,Kreuz.png,Dreieck.png,incomp,,,,
FL_normal_V1,1,20,right,female,53,Bekannter,1,495,FLproc,none,Kreis.png,Kreuz.png,comp,,,,
FL_normal_V1,1,20,right,female,53,Mutter,1,494,FLproc,Mutter,Quadrat.png,Quadrat.png,comp,,,,
FL_normal_V1,1,20,right,female,53,Ich,1,486,FLproc,none,Dreieck.png,Kreuz.png,incomp,,,,
FL_normal_V1,1,20,right,female,53,Mutter,1,461,FLproc,none,Quadrat.png,Kreuz.png,incomp,,,,
FL_normal_V1,1,20,right,female,53,Ich,1,366,FLproc,Mutter,Dreieck.png,Quadrat.png,comp,,,,
FL_normal_V1,1,20,right,female,53,Bekannter,1,483,FLproc,Bekannter,Kreis.png,Kreis.png,comp,,,,
FL_normal_V1,1,20,right,female,53,none,1,514,FLproc,Mutter,Kreuz.png,Quadrat.png,incomp,,,,
FL_normal_V1,1,20,right,female,53,Bekannter,1,416,FLproc,Mutter,Kreis.png,Quadrat.png,incomp,,,,
FL_normal_V1,1,20,right,female,53,none,1,515,FLproc,Bekannter,Kreuz.png,Kreis.png,comp,,,,
FL_normal_V1,1,20,right,female,53,Mutter,1,497,FLproc,Bekannter,Quadrat.png,Kreis.png,incomp,,,,
FL_normal_V1,1,20,right,female,53,Bekannter,1,416,FLproc,Ich,Kreis.png,Dreieck.png,incomp,,,,
FL_normal_V1,1,20,right,female,53,Ich,1,458,FLproc,Bekannter,Dreieck.png,Kreis.png,incomp,,,,
FL_normal_V1,1,20,right,female,53,none,1,403,FLproc,none,Kreuz.png,Kreuz.png,comp,,,,
FL_normal_V1,1,20,right,female,53,Mutter,1,391,FLproc,Ich,Quadrat.png,Dreieck.png,comp,,,,
FL_normal_V1,1,20,right,female,53,Ich,1,410,FLproc,Ich,Dreieck.png,Dreieck.png,comp,,,,
FL_normal_V1,1,20,right,female,54,,,,MTproc,,,,,1,396,im,
FL_normal_V1,1,20,right,female,54,,,,MTproc,,,,,1,767,bm,
FL_normal_V1,1,20,right,female,54,,,,MTproc,,,,,1,497,mn,
FL_normal_V1,1,20,right,female,54,,,,MTproc,,,,,1,511,mm,
FL_normal_V1,1,20,right,female,54,,,,MTproc,,,,,1,621,bn,
FL_normal_V1,1,20,right,female,54,,,,MTproc,,,,,1,597,mm,
FL_normal_V1,1,20,right,female,54,,,,MTproc,,,,,1,470,mn,
FL_normal_V1,1,20,right,female,54,,,,MTproc,,,,,1,653,bn,
FL_normal_V1,1,20,right,female,54,,,,MTproc,,,,,1,580,in,
FL_normal_V1,1,20,right,female,54,,,,MTproc,,,,,1,565,in,
FL_normal_V1,1,20,right,female,54,,,,MTproc,,,,,1,303,im,
FL_normal_V1,1,20,right,female,54,,,,MTproc,,,,,1,406,bm,
FL_normal_V1,1,20,right,female,54,,,,MTproc,,,,,1,512,in,
FL_normal_V1,1,20,right,female,54,,,,MTproc,,,,,0,493,bn,
FL_normal_V1,1,20,right,female,54,,,,MTproc,,,,,1,436,mm,
FL_normal_V1,1,20,right,female,54,,,,MTproc,,,,,1,788,mn,
FL_normal_V1,1,20,right,female,54,,,,MTproc,,,,,1,372,im,
FL_normal_V1,1,20,right,female,54,,,,MTproc,,,,,1,544,bm,
FL_normal_V1,1,20,right,female,54,,,,MTproc,,,,,0,580,bm,
FL_normal_V1,1,20,right,female,54,,,,MTproc,,,,,1,382,im,
FL_normal_V1,1,20,right,female,54,,,,MTproc,,,,,1,417,bn,
FL_normal_V1,1,20,right,female,54,,,,MTproc,,,,,1,474,mm,
FL_normal_V1,1,20,right,female,54,,,,MTproc,,,,,1,537,in,
FL_normal_V1,1,20,right,female,54,,,,MTproc,,,,,1,597,mn,
FL_normal_V1,1,20,right,female,54,,,,MTproc,,,,,1,559,in,
FL_normal_V1,1,20,right,female,54,,,,MTproc,,,,,0,522,mm,
FL_normal_V1,1,20,right,female,54,,,,MTproc,,,,,1,389,mm,
FL_normal_V1,1,20,right,female,54,,,,MTproc,,,,,1,480,bn,
FL_normal_V1,1,20,right,female,54,,,,MTproc,,,,,1,543,bn,
FL_normal_V1,1,20,right,female,54,,,,MTproc,,,,,1,459,mn,
FL_normal_V1,1,20,right,female,54,,,,MTproc,,,,,1,371,im,
FL_normal_V1,1,20,right,female,54,,,,MTproc,,,,,1,606,in,
FL_normal_V1,1,20,right,female,54,,,,MTproc,,,,,1,551,bm,
FL_normal_V1,1,20,right,female,54,,,,MTproc,,,,,1,594,bm,
FL_normal_V1,1,20,right,female,54,,,,MTproc,,,,,0,468,mn,
FL_normal_V1,1,20,right,female,54,,,,MTproc,,,,,1,419,im,
FL_normal_V1,1,20,right,female,54,,,,MTproc,,,,,1,564,mm,
FL_normal_V1,1,20,right,female,54,,,,MTproc,,,,,1,711,bn,
FL_normal_V1,1,20,right,female,54,,,,MTproc,,,,,0,379,in,
FL_normal_V1,1,20,right,female,54,,,,MTproc,,,,,1,550,bm,
FL_normal_V1,1,20,right,female,54,,,,MTproc,,,,,1,617,mn,
FL_normal_V1,1,20,right,female,54,,,,MTproc,,,,,1,601,mm,
FL_normal_V1,1,20,right,female,54,,,,MTproc,,,,,1,313,im,
FL_normal_V1,1,20,right,female,54,,,,MTproc,,,,,1,431,in,
FL_normal_V1,1,20,right,female,54,,,,MTproc,,,,,1,392,im,
FL_normal_V1,1,20,right,female,54,,,,MTproc,,,,,1,491,mn,
FL_normal_V1,1,20,right,female,54,,,,MTproc,,,,,1,657,bn,
FL_normal_V1,1,20,right,female,54,,,,MTproc,,,,,0,511,bm,
FL_normal_V1,1,20,right,female,55,,,,,,,,,,,,
FL_normal_V1,1,20,right,female,56,,,,,,,,,,,,
FL_normal_V1,1,20,right,female,57,,,,,,,,,,,,
FL_normal_V1,1,20,right,female,58,,,,,,,,,,,,
FL_normal_V1,1,20,right,female,59,,,,,,,,,,,,
FL_normal_V1,1,20,right,female,60,,,,,,,,,,,,
FL_normal_V1,1,20,right,female,61,,,,,,,,,,,,
FL_normal_V1,1,20,right,female,62,,,,,,,,,,,,
FL_normal_V1,1,20,right,female,63,,,,,,,,,,,,
FL_normal_V1,1,20,right,female,64,,,,,,,,,,,,
FL_normal_V1,13,22,right,female,1,,,,,,,,,,,,mm
FL_normal_V1,13,22,right,female,2,,,,,,,,,,,,bn
FL_normal_V1,13,22,right,female,3,,,,,,,,,,,,im
FL_normal_V1,13,22,right,female,4,,,,,,,,,,,,in
FL_normal_V1,13,22,right,female,5,,,,,,,,,,,,in
FL_normal_V1,13,22,right,female,6,,,,,,,,,,,,bm
FL_normal_V1,13,22,right,female,7,,,,,,,,,,,,mn
FL_normal_V1,13,22,right,female,8,,,,,,,,,,,,im
FL_normal_V1,13,22,right,female,9,,,,,,,,,,,,mn
FL_normal_V1,13,22,right,female,10,,,,,,,,,,,,bn
FL_normal_V1,13,22,right,female,11,,,,,,,,,,,,mm
FL_normal_V1,13,22,right,female,12,,,,,,,,,,,,bm
FL_normal_V1,13,22,right,female,13,,,,,,,,,,,,im
FL_normal_V1,13,22,right,female,14,,,,,,,,,,,,bn
FL_normal_V1,13,22,right,female,15,,,,,,,,,,,,in
FL_normal_V1,13,22,right,female,16,,,,,,,,,,,,bm
FL_normal_V1,13,22,right,female,17,,,,,,,,,,,,mn
FL_normal_V1,13,22,right,female,18,,,,,,,,,,,,in
FL_normal_V1,13,22,right,female,19,,,,,,,,,,,,im
FL_normal_V1,13,22,right,female,20,,,,,,,,,,,,mm
FL_normal_V1,13,22,right,female,21,,,,,,,,,,,,mn
FL_normal_V1,13,22,right,female,22,,,,,,,,,,,,bm
FL_normal_V1,13,22,right,female,23,,,,,,,,,,,,bn
FL_normal_V1,13,22,right,female,24,,,,,,,,,,,,mm
FL_normal_V1,13,22,right,female,25,,,,,,,,,,,,bm
FL_normal_V1,13,22,right,female,26,,,,,,,,,,,,in
FL_normal_V1,13,22,right,female,27,,,,,,,,,,,,mn
FL_normal_V1,13,22,right,female,28,,,,,,,,,,,,bm
FL_normal_V1,13,22,right,female,29,,,,,,,,,,,,bn
FL_normal_V1,13,22,right,female,30,,,,,,,,,,,,mn
FL_normal_V1,13,22,right,female,31,,,,,,,,,,,,in
FL_normal_V1,13,22,right,female,32,,,,,,,,,,,,mm
FL_normal_V1,13,22,right,female,33,,,,,,,,,,,,mm
FL_normal_V1,13,22,right,female,34,,,,,,,,,,,,im
FL_normal_V1,13,22,right,female,35,,,,,,,,,,,,bn
FL_normal_V1,13,22,right,female,36,,,,,,,,,,,,im
FL_normal_V1,13,22,right,female,37,,,,,,,,,,,,mn
FL_normal_V1,13,22,right,female,38,,,,,,,,,,,,bn
FL_normal_V1,13,22,right,female,39,,,,,,,,,,,,bm
FL_normal_V1,13,22,right,female,40,,,,,,,,,,,,in
FL_normal_V1,13,22,right,female,41,,,,,,,,,,,,mm
FL_normal_V1,13,22,right,female,42,,,,,,,,,,,,mm
FL_normal_V1,13,22,right,female,43,,,,,,,,,,,,im
FL_normal_V1,13,22,right,female,44,,,,,,,,,,,,im
FL_normal_V1,13,22,right,female,45,,,,,,,,,,,,in
FL_normal_V1,13,22,right,female,46,,,,,,,,,,,,mn
FL_normal_V1,13,22,right,female,47,,,,,,,,,,,,bm
FL_normal_V1,13,22,right,female,48,,,,,,,,,,,,bn
FL_normal_V1,13,22,right,female,49,none,0,1834,FLproc,Mutter,Kreuz.png,Quadrat.png,incomp,,,,
FL_normal_V1,13,22,right,female,49,Bekannter,1,1868,FLproc,Ich,Kreis.png,Dreieck.png,incomp,,,,
FL_normal_V1,13,22,right,female,49,Mutter,1,1556,FLproc,Mutter,Quadrat.png,Quadrat.png,comp,,,,
FL_normal_V1,13,22,right,female,49,Ich,1,1026,FLproc,Mutter,Dreieck.png,Quadrat.png,comp,,,,
FL_normal_V1,13,22,right,female,49,Bekannter,1,1001,FLproc,Bekannter,Kreis.png,Kreis.png,comp,,,,
FL_normal_V1,13,22,right,female,49,Mutter,1,721,FLproc,Ich,Quadrat.png,Dreieck.png,comp,,,,
FL_normal_V1,13,22,right,female,49,Ich,1,485,FLproc,none,Dreieck.png,Kreuz.png,incomp,,,,
FL_normal_V1,13,22,right,female,49,Mutter,1,508,FLproc,none,Quadrat.png,Kreuz.png,incomp,,,,
FL_normal_V1,13,22,right,female,49,none,0,851,FLproc,Bekannter,Kreuz.png,Kreis.png,comp,,,,
FL_normal_V1,13,22,right,female,49,Ich,1,561,FLproc,Bekannter,Dreieck.png,Kreis.png,incomp,,,,
FL_normal_V1,13,22,right,female,49,none,1,445,FLproc,none,Kreuz.png,Kreuz.png,comp,,,,
FL_normal_V1,13,22,right,female,49,Mutter,1,335,FLproc,Bekannter,Quadrat.png,Kreis.png,incomp,,,,
FL_normal_V1,13,22,right,female,49,Ich,1,718,FLproc,Ich,Dreieck.png,Dreieck.png,comp,,,,
FL_normal_V1,13,22,right,female,49,Bekannter,1,682,FLproc,Mutter,Kreis.png,Quadrat.png,incomp,,,,
FL_normal_V1,13,22,right,female,49,Bekannter,1,504,FLproc,none,Kreis.png,Kreuz.png,comp,,,,
FL_normal_V1,13,22,right,female,49,none,0,431,FLproc,Ich,Kreuz.png,Dreieck.png,incomp,,,,
FL_normal_V1,13,22,right,female,49,Mutter,1,905,FLproc,Mutter,Quadrat.png,Quadrat.png,comp,,,,
FL_normal_V1,13,22,right,female,49,none,1,508,FLproc,none,Kreuz.png,Kreuz.png,comp,,,,
FL_normal_V1,13,22,right,female,49,Ich,1,531,FLproc,none,Dreieck.png,Kreuz.png,incomp,,,,
FL_normal_V1,13,22,right,female,49,Mutter,0,392,FLproc,Ich,Quadrat.png,Dreieck.png,comp,,,,
FL_normal_V1,13,22,right,female,49,none,1,428,FLproc,Bekannter,Kreuz.png,Kreis.png,comp,,,,
FL_normal_V1,13,22,right,female,49,Ich,1,494,FLproc,Bekannter,Dreieck.png,Kreis.png,incomp,,,,
FL_normal_V1,13,22,right,female,49,Bekannter,1,590,FLproc,Ich,Kreis.png,Dreieck.png,incomp,,,,
FL_normal_V1,13,22,right,female,49,Ich,1,537,FLproc,Mutter,Dreieck.png,Quadrat.png,comp,,,,
FL_normal_V1,13,22,right,female,49,Ich,0,382,FLproc,Ich,Dreieck.png,Dreieck.png,comp,,,,
FL_normal_V1,13,22,right,female,49,Bekannter,1,418,FLproc,none,Kreis.png,Kreuz.png,comp,,,,
FL_normal_V1,13,22,right,female,49,Bekannter,1,580,FLproc,Mutter,Kreis.png,Quadrat.png,incomp,,,,
FL_normal_V1,13,22,right,female,49,Bekannter,1,616,FLproc,Bekannter,Kreis.png,Kreis.png,comp,,,,
FL_normal_V1,13,22,right,female,49,Mutter,1,321,FLproc,none,Quadrat.png,Kreuz.png,incomp,,,,
FL_normal_V1,13,22,right,female,49,none,1,543,FLproc,Ich,Kreuz.png,Dreieck.png,incomp,,,,
FL_normal_V1,13,22,right,female,49,none,1,581,FLproc,Mutter,Kreuz.png,Quadrat.png,incomp,,,,
FL_normal_V1,13,22,right,female,49,Mutter,1,559,FLproc,Bekannter,Quadrat.png,Kreis.png,incomp,,,,
FL_normal_V1,13,22,right,female,49,none,1,580,FLproc,Ich,Kreuz.png,Dreieck.png,incomp,,,,
FL_normal_V1,13,22,right,female,49,none,1,383,FLproc,none,Kreuz.png,Kreuz.png,comp,,,,
FL_normal_V1,13,22,right,female,49,Bekannter,1,395,FLproc,none,Kreis.png,Kreuz.png,comp,,,,
FL_normal_V1,13,22,right,female,49,Bekannter,1,623,FLproc,Mutter,Kreis.png,Quadrat.png,incomp,,,,
FL_normal_V1,13,22,right,female,49,Bekannter,0,409,FLproc,Ich,Kreis.png,Dreieck.png,incomp,,,,
FL_normal_V1,13,22,right,female,49,none,1,572,FLproc,Bekannter,Kreuz.png,Kreis.png,comp,,,,
FL_normal_V1,13,22,right,female,49,Ich,1,440,FLproc,Mutter,Dreieck.png,Quadrat.png,comp,,,,
FL_normal_V1,13,22,right,female,49,Ich,0,473,FLproc,Bekannter,Dreieck.png,Kreis.png,incomp,,,,
FL_normal_V1,13,22,right,female,49,Mutter,1,514,FLproc,none,Quadrat.png,Kreuz.png,incomp,,,,
FL_normal_V1,13,22,right,female,49,none,1,575,FLproc,Mutter,Kreuz.png,Quadrat.png,incomp,,,,
FL_normal_V1,13,22,right,female,49,Ich,1,539,FLproc,none,Dreieck.png,Kreuz.png,incomp,,,,
FL_normal_V1,13,22,right,female,49,Ich,1,528,FLproc,Ich,Dreieck.png,Dreieck.png,comp,,,,
FL_normal_V1,13,22,right,female,49,Mutter,1,470,FLproc,Bekannter,Quadrat.png,Kreis.png,incomp,,,,
FL_normal_V1,13,22,right,female,49,Mutter,1,542,FLproc,Mutter,Quadrat.png,Quadrat.png,comp,,,,
FL_normal_V1,13,22,right,female,49,Bekannter,1,539,FLproc,Bekannter,Kreis.png,Kreis.png,comp,,,,
FL_normal_V1,13,22,right,female,49,Mutter,1,496,FLproc,Ich,Quadrat.png,Dreieck.png,comp,,,,
FL_normal_V1,13,22,right,female,50,,,,MTproc,,,,,1,1274,bn,
FL_normal_V1,13,22,right,female,50,,,,MTproc,,,,,1,732,in,
FL_normal_V1,13,22,right,female,50,,,,MTproc,,,,,1,519,bm,
FL_normal_V1,13,22,right,female,50,,,,MTproc,,,,,0,579,mn,
FL_normal_V1,13,22,right,female,50,,,,MTproc,,,,,0,574,mm,
FL_normal_V1,13,22,right,female,50,,,,MTproc,,,,,0,464,bn,
FL_normal_V1,13,22,right,female,50,,,,MTproc,,,,,1,718,in,
FL_normal_V1,13,22,right,female,50,,,,MTproc,,,,,1,489,im,
FL_normal_V1,13,22,right,female,50,,,,MTproc,,,,,0,288,mm,
FL_normal_V1,13,22,right,female,50,,,,MTproc,,,,,1,367,im,
FL_normal_V1,13,22,right,female,50,,,,MTproc,,,,,0,0,bm,
FL_normal_V1,13,22,right,female,50,,,,MTproc,,,,,0,499,mn,
FL_normal_V1,13,22,right,female,50,,,,MTproc,,,,,0,505,bm,
FL_normal_V1,13,22,right,female,50,,,,MTproc,,,,,0,574,mm,
FL_normal_V1,13,22,right,female,50,,,,MTproc,,,,,1,489,mm,
FL_normal_V1,13,22,right,female,50,,,,MTproc,,,,,1,591,bm,
FL_normal_V1,13,22,right,female,50,,,,MTproc,,,,,1,544,mn,
FL_normal_V1,13,22,right,female,50,,,,MTproc,,,,,1,316,mn,
FL_normal_V1,13,22,right,female,50,,,,MTproc,,,,,1,633,bn,
FL_normal_V1,13,22,right,female,50,,,,MTproc,,,,,1,577,in,
FL_normal_V1,13,22,right,female,50,,,,MTproc,,,,,1,523,im,
FL_normal_V1,13,22,right,female,50,,,,MTproc,,,,,1,480,in,
FL_normal_V1,13,22,right,female,50,,,,MTproc,,,,,1,295,im,
FL_normal_V1,13,22,right,female,50,,,,MTproc,,,,,1,318,bn,
FL_normal_V1,13,22,right,female,50,,,,MTproc,,,,,1,364,bm,
FL_normal_V1,13,22,right,female,50,,,,MTproc,,,,,1,560,bn,
FL_normal_V1,13,22,right,female,50,,,,MTproc,,,,,1,611,mn,
FL_normal_V1,13,22,right,female,50,,,,MTproc,,,,,1,363,im,
FL_normal_V1,13,22,right,female,50,,,,MTproc,,,,,0,352,mm,
FL_normal_V1,13,22,right,female,50,,,,MTproc,,,,,1,684,im,
FL_normal_V1,13,22,right,female,50,,,,MTproc,,,,,1,505,mn,
FL_normal_V1,13,22,right,female,50,,,,MTproc,,,,,1,735,bm,
FL_normal_V1,13,22,right,female,50,,,,MTproc,,,,,1,705,in,
FL_normal_V1,13,22,right,female,50,,,,MTproc,,,,,1,574,mm,
FL_normal_V1,13,22,right,female,50,,,,MTproc,,,,,1,440,bn,
FL_normal_V1,13,22,right,female,50,,,,MTproc,,,,,0,424,in,
FL_normal_V1,13,22,right,female,50,,,,MTproc,,,,,1,465,mm,
FL_normal_V1,13,22,right,female,50,,,,MTproc,,,,,1,544,in,
FL_normal_V1,13,22,right,female,50,,,,MTproc,,,,,1,516,mm,
FL_normal_V1,13,22,right,female,50,,,,MTproc,,,,,1,504,mn,
FL_normal_V1,13,22,right,female,50,,,,MTproc,,,,,0,270,bn,
FL_normal_V1,13,22,right,female,50,,,,MTproc,,,,,0,750,bm,
FL_normal_V1,13,22,right,female,50,,,,MTproc,,,,,1,480,im,
FL_normal_V1,13,22,right,female,50,,,,MTproc,,,,,1,1135,in,
FL_normal_V1,13,22,right,female,50,,,,MTproc,,,,,0,663,mn,
FL_normal_V1,13,22,right,female,50,,,,MTproc,,,,,1,837,bm,
FL_normal_V1,13,22,right,female,50,,,,MTproc,,,,,1,379,im,
FL_normal_V1,13,22,right,female,50,,,,MTproc,,,,,0,397,bn,
FL_normal_V1,13,22,right,female,51,none,1,827,FLproc,Bekannter,Kreuz.png,Kreis.png,comp,,,,
FL_normal_V1,13,22,right,female,51,Ich,1,531,FLproc,none,Dreieck.png,Kreuz.png,incomp,,,,
FL_normal_V1,13,22,right,female,51,Mutter,1,319,FLproc,Mutter,Quadrat.png,Quadrat.png,comp,,,,
FL_normal_V1,13,22,right,female,51,Bekannter,0,311,FLproc,Bekannter,Kreis.png,Kreis.png,comp,,,,
FL_normal_V1,13,22,right,female,51,none,0,406,FLproc,Ich,Kreuz.png,Dreieck.png,incomp,,,,
FL_normal_V1,13,22,right,female,51,Bekannter,1,746,FLproc,Mutter,Kreis.png,Quadrat.png,incomp,,,,
FL_normal_V1,13,22,right,female,51,Mutter,1,422,FLproc,none,Quadrat.png,Kreuz.png,incomp,,,,
FL_normal_V1,13,22,right,female,51,none,1,736,FLproc,Mutter,Kreuz.png,Quadrat.png,incomp,,,,
FL_normal_V1,13,22,right,female,51,Bekannter,1,524,FLproc,none,Kreis.png,Kreuz.png,comp,,,,
FL_normal_V1,13,22,right,female,51,none,1,658,FLproc,none,Kreuz.png,Kreuz.png,comp,,,,
FL_normal_V1,13,22,right,female,51,Ich,1,2074,FLproc,Mutter,Dreieck.png,Quadrat.png,comp,,,,
FL_normal_V1,13,22,right,female,51,Mutter,1,736,FLproc,Bekannter,Quadrat.png,Kreis.png,incomp,,,,
FL_normal_V1,13,22,right,female,51,Bekannter,1,604,FLproc,Ich,Kreis.png,Dreieck.png,incomp,,,,
FL_normal_V1,13,22,right,female,51,Mutter,1,437,FLproc,Ich,Quadrat.png,Dreieck.png,comp,,,,
FL_normal_V1,13,22,right,female,51,Ich,1,607,FLproc,Bekannter,Dreieck.png,Kreis.png,incomp,,,,
FL_normal_V1,13,22,right,female,51,Ich,1,545,FLproc,Ich,Dreieck.png,Dreieck.png,comp,,,,
FL_normal_V1,13,22,right,female,51,Ich,1,518,FLproc,Bekannter,Dreieck.png,Kreis.png,incomp,,,,
FL_normal_V1,13,22,right,female,51,Mutter,1,484,FLproc,Ich,Quadrat.png,Dreieck.png,comp,,,,
FL_normal_V1,13,22,right,female,51,Mutter,0,419,FLproc,Mutter,Quadrat.png,Quadrat.png,comp,,,,
FL_normal_V1,13,22,right,female,51,Mutter,1,438,FLproc,none,Quadrat.png,Kreuz.png,incomp,,,,
FL_normal_V1,13,22,right,female,51,Ich,1,520,FLproc,none,Dreieck.png,Kreuz.png,incomp,,,,
FL_normal_V1,13,22,right,female,51,none,1,614,FLproc,Bekannter,Kreuz.png,Kreis.png,comp,,,,
FL_normal_V1,13,22,right,female,51,Ich,1,640,FLproc,Mutter,Dreieck.png,Quadrat.png,comp,,,,
FL_normal_V1,13,22,right,female,51,Ich,1,544,FLproc,Ich,Dreieck.png,Dreieck.png,comp,,,,
FL_normal_V1,13,22,right,female,51,Bekannter,1,396,FLproc,Ich,Kreis.png,Dreieck.png,incomp,,,,
FL_normal_V1,13,22,right,female,51,Bekannter,1,736,FLproc,Mutter,Kreis.png,Quadrat.png,incomp,,,,
FL_normal_V1,13,22,right,female,51,none,1,363,FLproc,Mutter,Kreuz.png,Quadrat.png,incomp,,,,
FL_normal_V1,13,22,right,female,51,Bekannter,1,480,FLproc,none,Kreis.png,Kreuz.png,comp,,,,
FL_normal_V1,13,22,right,female,51,Bekannter,1,624,FLproc,Bekannter,Kreis.png,Kreis.png,comp,,,,
FL_normal_V1,13,22,right,female,51,none,1,553,FLproc,Ich,Kreuz.png,Dreieck.png,incomp,,,,
FL_normal_V1,13,22,right,female,51,Mutter,1,509,FLproc,Bekannter,Quadrat.png,Kreis.png,incomp,,,,
FL_normal_V1,13,22,right,female,51,none,1,452,FLproc,none,Kreuz.png,Kreuz.png,comp,,,,
FL_normal_V1,13,22,right,female,51,Mutter,1,541,FLproc,Bekannter,Quadrat.png,Kreis.png,incomp,,,,
FL_normal_V1,13,22,right,female,51,Bekannter,1,442,FLproc,Mutter,Kreis.png,Quadrat.png,incomp,,,,
FL_normal_V1,13,22,right,female,51,Ich,1,636,FLproc,Bekannter,Dreieck.png,Kreis.png,incomp,,,,
FL_normal_V1,13,22,right,female,51,Bekannter,1,507,FLproc,Bekannter,Kreis.png,Kreis.png,comp,,,,
FL_normal_V1,13,22,right,female,51,none,1,610,FLproc,none,Kreuz.png,Kreuz.png,comp,,,,
FL_normal_V1,13,22,right,female,51,Ich,1,588,FLproc,Ich,Dreieck.png,Dreieck.png,comp,,,,
FL_normal_V1,13,22,right,female,51,Mutter,1,575,FLproc,Ich,Quadrat.png,Dreieck.png,comp,,,,
FL_normal_V1,13,22,right,female,51,Bekannter,1,467,FLproc,Ich,Kreis.png,Dreieck.png,incomp,,,,
FL_normal_V1,13,22,right,female,51,Mutter,1,395,FLproc,none,Quadrat.png,Kreuz.png,incomp,,,,
FL_normal_V1,13,22,right,female,51,Bekannter,1,415,FLproc,none,Kreis.png,Kreuz.png,comp,,,,
FL_normal_V1,13,22,right,female,51,none,1,545,FLproc,Ich,Kreuz.png,Dreieck.png,incomp,,,,
FL_normal_V1,13,22,right,female,51,Ich,1,550,FLproc,Mutter,Dreieck.png,Quadrat.png,comp,,,,
FL_normal_V1,13,22,right,female,51,none,1,587,FLproc,Bekannter,Kreuz.png,Kreis.png,comp,,,,
FL_normal_V1,13,22,right,female,51,none,1,486,FLproc,Mutter,Kreuz.png,Quadrat.png,incomp,,,,
FL_normal_V1,13,22,right,female,51,Ich,1,373,FLproc,none,Dreieck.png,Kreuz.png,incomp,,,,
FL_normal_V1,13,22,right,female,51,Mutter,1,577,FLproc,Mutter,Quadrat.png,Quadrat.png,comp,,,,
FL_normal_V1,13,22,right,female,52,,,,MTproc,,,,,0,455,in,
FL_normal_V1,13,22,right,female,52,,,,MTproc,,,,,1,487,im,
FL_normal_V1,13,22,right,female,52,,,,MTproc,,,,,1,629,mm,
FL_normal_V1,13,22,right,female,52,,,,MTproc,,,,,1,509,mn,
FL_normal_V1,13,22,right,female,52,,,,MTproc,,,,,1,547,mn,
FL_normal_V1,13,22,right,female,52,,,,MTproc,,,,,1,494,bm,
FL_normal_V1,13,22,right,female,52,,,,MTproc,,,,,1,692,im,
FL_normal_V1,13,22,right,female,52,,,,MTproc,,,,,1,489,in,
FL_normal_V1,13,22,right,female,52,,,,MTproc,,,,,1,479,mm,
FL_normal_V1,13,22,right,female,52,,,,MTproc,,,,,1,390,bn,
FL_normal_V1,13,22,right,female,52,,,,MTproc,,,,,1,417,bm,
FL_normal_V1,13,22,right,female,52,,,,MTproc,,,,,1,490,bn,
FL_normal_V1,13,22,right,female,52,,,,MTproc,,,,,1,704,mn,
FL_normal_V1,13,22,right,female,52,,,,MTproc,,,,,0,501,in,
FL_normal_V1,13,22,right,female,52,,,,MTproc,,,,,1,538,bm,
FL_normal_V1,13,22,right,female,52,,,,MTproc,,,,,1,509,in,
FL_normal_V1,13,22,right,female,52,,,,MTproc,,,,,1,738,bn,
FL_normal_V1,13,22,right,female,52,,,,MTproc,,,,,1,349,mm,
FL_normal_V1,13,22,right,female,52,,,,MTproc,,,,,1,497,bn,
FL_normal_V1,13,22,right,female,52,,,,MTproc,,,,,1,576,mn,
FL_normal_V1,13,22,right,female,52,,,,MTproc,,,,,1,514,bm,
FL_normal_V1,13,22,right,female,52,,,,MTproc,,,,,1,487,im,
FL_normal_V1,13,22,right,female,52,,,,MTproc,,,,,0,453,im,
FL_normal_V1,13,22,right,female,52,,,,MTproc,,,,,0,517,mm,
FL_normal_V1,13,22,right,female,52,,,,MTproc,,,,,1,713,in,
FL_normal_V1,13,22,right,female,52,,,,MTproc,,,,,0,0,mn,
FL_normal_V1,13,22,right,female,52,,,,MTproc,,,,,1,685,in,
FL_normal_V1,13,22,right,female,52,,,,MTproc,,,,,1,386,im,
FL_normal_V1,13,22,right,female,52,,,,MTproc,,,,,1,485,bm,
FL_normal_V1,13,22,right,female,52,,,,MTproc,,,,,1,515,bn,
FL_normal_V1,13,22,right,female,52,,,,MTproc,,,,,1,463,mm,
FL_normal_V1,13,22,right,female,52,,,,MTproc,,,,,1,463,im,
FL_normal_V1,13,22,right,female,52,,,,MTproc,,,,,1,767,bn,
FL_normal_V1,13,22,right,female,52,,,,MTproc,,,,,1,360,bm,
FL_normal_V1,13,22,right,female,52,,,,MTproc,,,,,0,603,mm,
FL_normal_V1,13,22,right,female,52,,,,MTproc,,,,,1,572,mn,
FL_normal_V1,13,22,right,female,52,,,,MTproc,,,,,1,727,in,
FL_normal_V1,13,22,right,female,52,,,,MTproc,,,,,1,570,in,
FL_normal_V1,13,22,right,female,52,,,,MTproc,,,,,1,460,mm,
FL_normal_V1,13,22,right,female,52,,,,MTproc,,,,,1,580,bm,
FL_normal_V1,13,22,right,female,52,,,,MTproc,,,,,0,567,mm,
FL_normal_V1,13,22,right,female,52,,,,MTproc,,,,,1,593,mn,
FL_normal_V1,13,22,right,female,52,,,,MTproc,,,,,1,691,mn,
FL_normal_V1,13,22,right,female,52,,,,MTproc,,,,,0,496,bn,
FL_normal_V1,13,22,right,female,52,,,,MTproc,,,,,1,821,bn,
FL_normal_V1,13,22,right,female,52,,,,MTproc,,,,,1,460,bm,
FL_normal_V1,13,22,right,female,52,,,,MTproc,,,,,1,403,im,
FL_normal_V1,13,22,right,female,52,,,,MTproc,,,,,1,333,im,
FL_normal_V1,13,22,right,female,53,Ich,1,555,FLproc,Ich,Dreieck.png,Dreieck.png,comp,,,,
FL_normal_V1,13,22,right,female,53,Mutter,1,456,FLproc,none,Quadrat.png,Kreuz.png,incomp,,,,
FL_normal_V1,13,22,right,female,53,Ich,1,513,FLproc,Bekannter,Dreieck.png,Kreis.png,incomp,,,,
FL_normal_V1,13,22,right,female,53,Bekannter,1,519,FLproc,none,Kreis.png,Kreuz.png,comp,,,,
FL_normal_V1,13,22,right,female,53,none,1,484,FLproc,Mutter,Kreuz.png,Quadrat.png,incomp,,,,
FL_normal_V1,13,22,right,female,53,none,1,540,FLproc,Bekannter,Kreuz.png,Kreis.png,comp,,,,
FL_normal_V1,13,22,right,female,53,Mutter,1,577,FLproc,Bekannter,Quadrat.png,Kreis.png,incomp,,,,
FL_normal_V1,13,22,right,female,53,Bekannter,1,540,FLproc,Mutter,Kreis.png,Quadrat.png,incomp,,,,
FL_normal_V1,13,22,right,female,53,Ich,1,522,FLproc,Mutter,Dreieck.png,Quadrat.png,comp,,,,
FL_normal_V1,13,22,right,female,53,none,1,439,FLproc,none,Kreuz.png,Kreuz.png,comp,,,,
FL_normal_V1,13,22,right,female,53,Bekannter,1,657,FLproc,Bekannter,Kreis.png,Kreis.png,comp,,,,
FL_normal_V1,13,22,right,female,53,Mutter,1,465,FLproc,Ich,Quadrat.png,Dreieck.png,comp,,,,
FL_normal_V1,13,22,right,female,53,Mutter,1,433,FLproc,Mutter,Quadrat.png,Quadrat.png,comp,,,,
FL_normal_V1,13,22,right,female,53,Bekannter,1,499,FLproc,Ich,Kreis.png,Dreieck.png,incomp,,,,
FL_normal_V1,13,22,right,female,53,none,1,394,FLproc,Ich,Kreuz.png,Dreieck.png,incomp,,,,
FL_normal_V1,13,22,right,female,53,Ich,1,518,FLproc,none,Dreieck.png,Kreuz.png,incomp,,,,
FL_normal_V1,13,22,right,female,53,none,1,538,FLproc,Mutter,Kreuz.png,Quadrat.png,incomp,,,,
FL_normal_V1,13,22,right,female,53,none,1,408,FLproc,Bekannter,Kreuz.png,Kreis.png,comp,,,,
FL_normal_V1,13,22,right,female,53,Ich,1,443,FLproc,Mutter,Dreieck.png,Quadrat.png,comp,,,,
FL_normal_V1,13,22,right,female,53,Bekannter,1,549,FLproc,Ich,Kreis.png,Dreieck.png,incomp,,,,
FL_normal_V1,13,22,right,female,53,Mutter,1,489,FLproc,Ich,Quadrat.png,Dreieck.png,comp,,,,
FL_normal_V1,13,22,right,female,53,Bekannter,1,384,FLproc,none,Kreis.png,Kreuz.png,comp,,,,
FL_normal_V1,13,22,right,female,53,Bekannter,1,532,FLproc,Bekannter,Kreis.png,Kreis.png,comp,,,,
FL_normal_V1,13,22,right,female,53,Mutter,1,450,FLproc,Mutter,Quadrat.png,Quadrat.png,comp,,,,
FL_normal_V1,13,22,right,female,53,none,1,427,FLproc,none,Kreuz.png,Kreuz.png,comp,,,,
FL_normal_V1,13,22,right,female,53,Ich,1,437,FLproc,Ich,Dreieck.png,Dreieck.png,comp,,,,
FL_normal_V1,13,22,right,female,53,Ich,1,535,FLproc,Bekannter,Dreieck.png,Kreis.png,incomp,,,,
FL_normal_V1,13,22,right,female,53,Bekannter,1,548,FLproc,Mutter,Kreis.png,Quadrat.png,incomp,,,,
FL_normal_V1,13,22,right,female,53,Mutter,1,527,FLproc,Bekannter,Quadrat.png,Kreis.png,incomp,,,,
FL_normal_V1,13,22,right,female,53,none,1,573,FLproc,Ich,Kreuz.png,Dreieck.png,incomp,,,,
FL_normal_V1,13,22,right,female,53,Mutter,1,369,FLproc,none,Quadrat.png,Kreuz.png,incomp,,,,
FL_normal_V1,13,22,right,female,53,Ich,1,422,FLproc,none,Dreieck.png,Kreuz.png,incomp,,,,
FL_normal_V1,13,22,right,female,53,Bekannter,1,512,FLproc,Ich,Kreis.png,Dreieck.png,incomp,,,,
FL_normal_V1,13,22,right,female,53,Mutter,1,495,FLproc,none,Quadrat.png,Kreuz.png,incomp,,,,
FL_normal_V1,13,22,right,female,53,Bekannter,1,510,FLproc,Mutter,Kreis.png,Quadrat.png,incomp,,,,
FL_normal_V1,13,22,right,female,53,none,1,373,FLproc,none,Kreuz.png,Kreuz.png,comp,,,,
FL_normal_V1,13,22,right,female,53,Ich,1,410,FLproc,none,Dreieck.png,Kreuz.png,incomp,,,,
FL_normal_V1,13,22,right,female,53,Ich,1,581,FLproc,Bekannter,Dreieck.png,Kreis.png,incomp,,,,
FL_normal_V1,13,22,right,female,53,none,1,433,FLproc,Bekannter,Kreuz.png,Kreis.png,comp,,,,
FL_normal_V1,13,22,right,female,53,none,1,545,FLproc,Mutter,Kreuz.png,Quadrat.png,incomp,,,,
FL_normal_V1,13,22,right,female,53,Bekannter,1,358,FLproc,none,Kreis.png,Kreuz.png,comp,,,,
FL_normal_V1,13,22,right,female,53,Mutter,1,436,FLproc,Mutter,Quadrat.png,Quadrat.png,comp,,,,
FL_normal_V1,13,22,right,female,53,Mutter,1,542,FLproc,Ich,Quadrat.png,Dreieck.png,comp,,,,
FL_normal_V1,13,22,right,female,53,Ich,1,531,FLproc,Ich,Dreieck.png,Dreieck.png,comp,,,,
FL_normal_V1,13,22,right,female,53,Bekannter,1,592,FLproc,Bekannter,Kreis.png,Kreis.png,comp,,,,
FL_normal_V1,13,22,right,female,53,Ich,1,491,FLproc,Mutter,Dreieck.png,Quadrat.png,comp,,,,
FL_normal_V1,13,22,right,female,53,none,0,1034,FLproc,Ich,Kreuz.png,Dreieck.png,incomp,,,,
FL_normal_V1,13,22,right,female,53,Mutter,1,648,FLproc,Bekannter,Quadrat.png,Kreis.png,incomp,,,,
FL_normal_V1,13,22,right,female,54,,,,MTproc,,,,,1,571,bn,
FL_normal_V1,13,22,right,female,54,,,,MTproc,,,,,1,638,mn,
FL_normal_V1,13,22,right,female,54,,,,MTproc,,,,,1,477,mm,
FL_normal_V1,13,22,right,female,54,,,,MTproc,,,,,1,548,in,
FL_normal_V1,13,22,right,female,54,,,,MTproc,,,,,1,528,bm,
FL_normal_V1,13,22,right,female,54,,,,MTproc,,,,,1,381,im,
FL_normal_V1,13,22,right,female,54,,,,MTproc,,,,,1,367,im,
FL_normal_V1,13,22,right,female,54,,,,MTproc,,,,,1,539,mn,
FL_normal_V1,13,22,right,female,54,,,,MTproc,,,,,1,447,mm,
FL_normal_V1,13,22,right,female,54,,,,MTproc,,,,,1,534,bm,
FL_normal_V1,13,22,right,female,54,,,,MTproc,,,,,1,570,in,
FL_normal_V1,13,22,right,female,54,,,,MTproc,,,,,1,572,bn,
FL_normal_V1,13,22,right,female,54,,,,MTproc,,,,,1,558,mn,
FL_normal_V1,13,22,right,female,54,,,,MTproc,,,,,1,482,mm,
FL_normal_V1,13,22,right,female,54,,,,MTproc,,,,,1,376,mm,
FL_normal_V1,13,22,right,female,54,,,,MTproc,,,,,1,572,im,
FL_normal_V1,13,22,right,female,54,,,,MTproc,,,,,1,294,im,
FL_normal_V1,13,22,right,female,54,,,,MTproc,,,,,1,438,in,
FL_normal_V1,13,22,right,female,54,,,,MTproc,,,,,0,502,bn,
FL_normal_V1,13,22,right,female,54,,,,MTproc,,,,,1,451,in,
FL_normal_V1,13,22,right,female,54,,,,MTproc,,,,,1,771,bn,
FL_normal_V1,13,22,right,female,54,,,,MTproc,,,,,1,540,mn,
FL_normal_V1,13,22,right,female,54,,,,MTproc,,,,,1,352,bm,
FL_normal_V1,13,22,right,female,54,,,,MTproc,,,,,1,436,bm,
FL_normal_V1,13,22,right,female,54,,,,MTproc,,,,,1,373,bn,
FL_normal_V1,13,22,right,female,54,,,,MTproc,,,,,1,608,bm,
FL_normal_V1,13,22,right,female,54,,,,MTproc,,,,,1,353,mn,
FL_normal_V1,13,22,right,female,54,,,,MTproc,,,,,1,277,im,
FL_normal_V1,13,22,right,female,54,,,,MTproc,,,,,1,310,bn,
FL_normal_V1,13,22,right,female,54,,,,MTproc,,,,,1,291,bm,
FL_normal_V1,13,22,right,female,54,,,,MTproc,,,,,1,483,in,
FL_normal_V1,13,22,right,female,54,,,,MTproc,,,,,1,281,im,
FL_normal_V1,13,22,right,female,54,,,,MTproc,,,,,1,688,in,
FL_normal_V1,13,22,right,female,54,,,,MTproc,,,,,1,397,mm,
FL_normal_V1,13,22,right,female,54,,,,MTproc,,,,,1,679,mm,
FL_normal_V1,13,22,right,female,54,,,,MTproc,,,,,1,413,mn,
FL_normal_V1,13,22,right,female,54,,,,MTproc,,,,,1,319,im,
FL_normal_V1,13,22,right,female,54,,,,MTproc,,,,,1,493,bn,
FL_normal_V1,13,22,right,female,54,,,,MTproc,,,,,0,395,mn,
FL_normal_V1,13,22,right,female,54,,,,MTproc,,,,,1,886,mn,
FL_normal_V1,13,22,right,female,54,,,,MTproc,,,,,1,497,im,
FL_normal_V1,13,22,right,female,54,,,,MTproc,,,,,1,518,mm,
FL_normal_V1,13,22,right,female,54,,,,MTproc,,,,,1,339,bm,
FL_normal_V1,13,22,right,female,54,,,,MTproc,,,,,0,432,mm,
FL_normal_V1,13,22,right,female,54,,,,MTproc,,,,,1,617,in,
FL_normal_V1,13,22,right,female,54,,,,MTproc,,,,,1,521,bm,
FL_normal_V1,13,22,right,female,54,,,,MTproc,,,,,1,773,in,
FL_normal_V1,13,22,right,female,54,,,,MTproc,,,,,1,631,bn,
FL_normal_V1,13,22,right,female,55,,,,,,,,,,,,
FL_normal_V1,13,22,right,female,56,,,,,,,,,,,,
FL_normal_V1,13,22,right,female,57,,,,,,,,,,,,
FL_normal_V1,13,22,right,female,58,,,,,,,,,,,,
FL_normal_V1,13,22,right,female,59,,,,,,,,,,,,
FL_normal_V1,13,22,right,female,60,,,,,,,,,,,,
FL_normal_V1,13,22,right,female,61,,,,,,,,,,,,
FL_normal_V1,13,22,right,female,62,,,,,,,,,,,,
FL_normal_V1,13,22,right,female,63,,,,,,,,,,,,
FL_normal_V1,13,22,right,female,64,,,,,,,,,,,,
FL_normal_V1,17,26,right,female,1,,,,,,,,,,,,bm
FL_normal_V1,17,26,right,female,2,,,,,,,,,,,,in
FL_normal_V1,17,26,right,female,3,,,,,,,,,,,,in
FL_normal_V1,17,26,right,female,4,,,,,,,,,,,,mn
FL_normal_V1,17,26,right,female,5,,,,,,,,,,,,mm
FL_normal_V1,17,26,right,female,6,,,,,,,,,,,,im
FL_normal_V1,17,26,right,female,7,,,,,,,,,,,,bn
FL_normal_V1,17,26,right,female,8,,,,,,,,,,,,bm
FL_normal_V1,17,26,right,female,9,,,,,,,,,,,,bn
FL_normal_V1,17,26,right,female,10,,,,,,,,,,,,im
FL_normal_V1,17,26,right,female,11,,,,,,,,,,,,mn
FL_normal_V1,17,26,right,female,12,,,,,,,,,,,,mm
FL_normal_V1,17,26,right,female,13,,,,,,,,,,,,bm
FL_normal_V1,17,26,right,female,14,,,,,,,,,,,,mm
FL_normal_V1,17,26,right,female,15,,,,,,,,,,,,mn
FL_normal_V1,17,26,right,female,16,,,,,,,,,,,,bm
FL_normal_V1,17,26,right,female,17,,,,,,,,,,,,bn
FL_normal_V1,17,26,right,female,18,,,,,,,,,,,,in
FL_normal_V1,17,26,right,female,19,,,,,,,,,,,,in
FL_normal_V1,17,26,right,female,20,,,,,,,,,,,,mn
FL_normal_V1,17,26,right,female,21,,,,,,,,,,,,im
FL_normal_V1,17,26,right,female,22,,,,,,,,,,,,mm
FL_normal_V1,17,26,right,female,23,,,,,,,,,,,,bn
FL_normal_V1,17,26,right,female,24,,,,,,,,,,,,im
FL_normal_V1,17,26,right,female,25,,,,,,,,,,,,in
FL_normal_V1,17,26,right,female,26,,,,,,,,,,,,mn
FL_normal_V1,17,26,right,female,27,,,,,,,,,,,,im
FL_normal_V1,17,26,right,female,28,,,,,,,,,,,,in
FL_normal_V1,17,26,right,female,29,,,,,,,,,,,,mm
FL_normal_V1,17,26,right,female,30,,,,,,,,,,,,bn
FL_normal_V1,17,26,right,female,31,,,,,,,,,,,,bn
FL_normal_V1,17,26,right,female,32,,,,,,,,,,,,mm
FL_normal_V1,17,26,right,female,33,,,,,,,,,,,,im
FL_normal_V1,17,26,right,female,34,,,,,,,,,,,,bm
FL_normal_V1,17,26,right,female,35,,,,,,,,,,,,bm
FL_normal_V1,17,26,right,female,36,,,,,,,,,,,,mn
FL_normal_V1,17,26,right,female,37,,,,,,,,,,,,bm
FL_normal_V1,17,26,right,female,38,,,,,,,,,,,,bn
FL_normal_V1,17,26,right,female,39,,,,,,,,,,,,mm
FL_normal_V1,17,26,right,female,40,,,,,,,,,,,,bn
FL_normal_V1,17,26,right,female,41,,,,,,,,,,,,bm
FL_normal_V1,17,26,right,female,42,,,,,,,,,,,,im
FL_normal_V1,17,26,right,female,43,,,,,,,,,,,,im
FL_normal_V1,17,26,right,female,44,,,,,,,,,,,,mn
FL_normal_V1,17,26,right,female,45,,,,,,,,,,,,mn
FL_normal_V1,17,26,right,female,46,,,,,,,,,,,,in
FL_normal_V1,17,26,right,female,47,,,,,,,,,,,,mm
FL_normal_V1,17,26,right,female,48,,,,,,,,,,,,in
FL_normal_V1,17,26,right,female,49,Mutter,1,1449,FLproc,Bekannter,Quadrat.png,Kreis.png,incomp,,,,
FL_normal_V1,17,26,right,female,49,Ich,1,1869,FLproc,Ich,Dreieck.png,Dreieck.png,comp,,,,
FL_normal_V1,17,26,right,female,49,Bekannter,1,628,FLproc,Bekannter,Kreis.png,Kreis.png,comp,,,,
FL_normal_V1,17,26,right,female,49,Mutter,1,1982,FLproc,Ich,Quadrat.png,Dreieck.png,comp,,,,
FL_normal_V1,17,26,right,female,49,none,1,888,FLproc,Ich,Kreuz.png,Dreieck.png,incomp,,,,
FL_normal_V1,17,26,right,female,49,none,1,845,FLproc,Bekannter,Kreuz.png,Kreis.png,comp,,,,
FL_normal_V1,17,26,right,female,49,none,1,1853,FLproc,Mutter,Kreuz.png,Quadrat.png,incomp,,,,
FL_normal_V1,17,26,right,female,49,Ich,1,694,FLproc,Bekannter,Dreieck.png,Kreis.png,incomp,,,,
FL_normal_V1,17,26,right,female,49,Bekannter,1,1860,FLproc,none,Kreis.png,Kreuz.png,comp,,,,
FL_normal_V1,17,26,right,female,49,Ich,1,500,FLproc,none,Dreieck.png,Kreuz.png,incomp,,,,
FL_normal_V1,17,26,right,female,49,Mutter,1,411,FLproc,none,Quadrat.png,Kreuz.png,incomp,,,,
FL_normal_V1,17,26,right,female,49,Ich,1,742,FLproc,Mutter,Dreieck.png,Quadrat.png,comp,,,,
FL_normal_V1,17,26,right,female,49,Bekannter,1,1081,FLproc,Mutter,Kreis.png,Quadrat.png,incomp,,,,
FL_normal_V1,17,26,right,female,49,Bekannter,1,1301,FLproc,Ich,Kreis.png,Dreieck.png,incomp,,,,
FL_normal_V1,17,26,right,female,49,Mutter,1,1479,FLproc,Mutter,Quadrat.png,Quadrat.png,comp,,,,
FL_normal_V1,17,26,right,female,49,none,1,561,FLproc,none,Kreuz.png,Kreuz.png,comp,,,,
FL_normal_V1,17,26,right,female,49,Bekannter,1,717,FLproc,Bekannter,Kreis.png,Kreis.png,comp,,,,
FL_normal_V1,17,26,right,female,49,Ich,1,706,FLproc,none,Dreieck.png,Kreuz.png,incomp,,,,
FL_normal_V1,17,26,right,female,49,none,1,671,FLproc,Ich,Kreuz.png,Dreieck.png,incomp,,,,
FL_normal_V1,17,26,right,female,49,none,1,1830,FLproc,Bekannter,Kreuz.png,Kreis.png,comp,,,,
FL_normal_V1,17,26,right,female,49,Bekannter,1,1472,FLproc,Ich,Kreis.png,Dreieck.png,incomp,,,,
FL_normal_V1,17,26,right,female,49,Mutter,1,1074,FLproc,none,Quadrat.png,Kreuz.png,incomp,,,,
FL_normal_V1,17,26,right,female,49,none,1,2454,FLproc,Mutter,Kreuz.png,Quadrat.png,incomp,,,,
FL_normal_V1,17,26,right,female,49,Mutter,0,851,FLproc,Ich,Quadrat.png,Dreieck.png,comp,,,,
FL_normal_V1,17,26,right,female,49,Ich,1,1522,FLproc,Mutter,Dreieck.png,Quadrat.png,comp,,,,
FL_normal_V1,17,26,right,female,49,Bekannter,1,498,FLproc,none,Kreis.png,Kreuz.png,comp,,,,
FL_normal_V1,17,26,right,female,49,Mutter,1,576,FLproc,Bekannter,Quadrat.png,Kreis.png,incomp,,,,
FL_normal_V1,17,26,right,female,49,Ich,1,460,FLproc,Bekannter,Dreieck.png,Kreis.png,incomp,,,,
FL_normal_V1,17,26,right,female,49,Ich,1,733,FLproc,Ich,Dreieck.png,Dreieck.png,comp,,,,
FL_normal_V1,17,26,right,female,49,none,1,561,FLproc,none,Kreuz.png,Kreuz.png,comp,,,,
FL_normal_V1,17,26,right,female,49,Bekannter,1,3117,FLproc,Mutter,Kreis.png,Quadrat.png,incomp,,,,
FL_normal_V1,17,26,right,female,49,Mutter,1,644,FLproc,Mutter,Quadrat.png,Quadrat.png,comp,,,,
FL_normal_V1,17,26,right,female,49,Mutter,1,531,FLproc,none,Quadrat.png,Kreuz.png,incomp,,,,
FL_normal_V1,17,26,right,female,49,none,1,2112,FLproc,Bekannter,Kreuz.png,Kreis.png,comp,,,,
FL_normal_V1,17,26,right,female,49,Ich,1,525,FLproc,Mutter,Dreieck.png,Quadrat.png,comp,,,,
FL_normal_V1,17,26,right,female,49,Bekannter,1,531,FLproc,Bekannter,Kreis.png,Kreis.png,comp,,,,
FL_normal_V1,17,26,right,female,49,Bekannter,1,592,FLproc,Ich,Kreis.png,Dreieck.png,incomp,,,,
FL_normal_V1,17,26,right,female,49,Ich,1,979,FLproc,Bekannter,Dreieck.png,Kreis.png,incomp,,,,
FL_normal_V1,17,26,right,female,49,none,1,572,FLproc,none,Kreuz.png,Kreuz.png,comp,,,,
FL_normal_V1,17,26,right,female,49,none,1,776,FLproc,Mutter,Kreuz.png,Quadrat.png,incomp,,,,
FL_normal_V1,17,26,right,female,49,Bekannter,1,874,FLproc,none,Kreis.png,Kreuz.png,comp,,,,
FL_normal_V1,17,26,right,female,49,Mutter,1,904,FLproc,Bekannter,Quadrat.png,Kreis.png,incomp,,,,
FL_normal_V1,17,26,right,female,49,Ich,1,676,FLproc,none,Dreieck.png,Kreuz.png,incomp,,,,
FL_normal_V1,17,26,right,female,49,Bekannter,1,650,FLproc,Mutter,Kreis.png,Quadrat.png,incomp,,,,
FL_normal_V1,17,26,right,female,49,Mutter,1,730,FLproc,Mutter,Quadrat.png,Quadrat.png,comp,,,,
FL_normal_V1,17,26,right,female,49,Mutter,1,454,FLproc,Ich,Quadrat.png,Dreieck.png,comp,,,,
FL_normal_V1,17,26,right,female,49,Ich,1,743,FLproc,Ich,Dreieck.png,Dreieck.png,comp,,,,
FL_normal_V1,17,26,right,female,49,none,1,499,FLproc,Ich,Kreuz.png,Dreieck.png,incomp,,,,
FL_normal_V1,17,26,right,female,50,,,,MTproc,,,,,0,1395,bm,
FL_normal_V1,17,26,right,female,50,,,,MTproc,,,,,0,0,mn,
FL_normal_V1,17,26,right,female,50,,,,MTproc,,,,,1,1328,in,
FL_normal_V1,17,26,right,female,50,,,,MTproc,,,,,1,1087,bm,
FL_normal_V1,17,26,right,female,50,,,,MTproc,,,,,1,1282,mn,
FL_normal_V1,17,26,right,female,50,,,,MTproc,,,,,0,0,mm,
FL_normal_V1,17,26,right,female,50,,,,MTproc,,,,,1,659,mm,
FL_normal_V1,17,26,right,female,50,,,,MTproc,,,,,1,1050,im,
FL_normal_V1,17,26,right,female,50,,,,MTproc,,,,,1,1038,bn,
FL_normal_V1,17,26,right,female,50,,,,MTproc,,,,,1,1019,bn,
FL_normal_V1,17,26,right,female,50,,,,MTproc,,,,,1,689,im,
FL_normal_V1,17,26,right,female,50,,,,MTproc,,,,,1,1406,in,
FL_normal_V1,17,26,right,female,50,,,,MTproc,,,,,1,1178,bm,
FL_normal_V1,17,26,right,female,50,,,,MTproc,,,,,1,1040,mn,
FL_normal_V1,17,26,right,female,50,,,,MTproc,,,,,1,1101,mm,
FL_normal_V1,17,26,right,female,50,,,,MTproc,,,,,1,1078,mm,
FL_normal_V1,17,26,right,female,50,,,,MTproc,,,,,1,1057,in,
FL_normal_V1,17,26,right,female,50,,,,MTproc,,,,,1,1005,mn,
FL_normal_V1,17,26,right,female,50,,,,MTproc,,,,,1,1012,im,
FL_normal_V1,17,26,right,female,50,,,,MTproc,,,,,1,906,bn,
FL_normal_V1,17,26,right,female,50,,,,MTproc,,,,,1,973,im,
FL_normal_V1,17,26,right,female,50,,,,MTproc,,,,,1,917,in,
FL_normal_V1,17,26,right,female,50,,,,MTproc,,,,,0,0,bm,
FL_normal_V1,17,26,right,female,50,,,,MTproc,,,,,0,0,bn,
FL_normal_V1,17,26,right,female,50,,,,MTproc,,,,,1,1103,in,
FL_normal_V1,17,26,right,female,50,,,,MTproc,,,,,1,905,mm,
FL_normal_V1,17,26,right,female,50,,,,MTproc,,,,,1,580,im,
FL_normal_V1,17,26,right,female,50,,,,MTproc,,,,,1,974,mn,
FL_normal_V1,17,26,right,female,50,,,,MTproc,,,,,1,846,mm,
FL_normal_V1,17,26,right,female,50,,,,MTproc,,,,,1,980,bn,
FL_normal_V1,17,26,right,female,50,,,,MTproc,,,,,1,1196,mn,
FL_normal_V1,17,26,right,female,50,,,,MTproc,,,,,1,930,bn,
FL_normal_V1,17,26,right,female,50,,,,MTproc,,,,,1,980,bm,
FL_normal_V1,17,26,right,female,50,,,,MTproc,,,,,1,1067,in,
FL_normal_V1,17,26,right,female,50,,,,MTproc,,,,,1,1190,bm,
FL_normal_V1,17,26,right,female,50,,,,MTproc,,,,,1,1044,im,
FL_normal_V1,17,26,right,female,50,,,,MTproc,,,,,1,721,mm,
FL_normal_V1,17,26,right,female,50,,,,MTproc,,,,,1,989,bn,
FL_normal_V1,17,26,right,female,50,,,,MTproc,,,,,1,1108,mn,
FL_normal_V1,17,26,right,female,50,,,,MTproc,,,,,1,733,mm,
FL_normal_V1,17,26,right,female,50,,,,MTproc,,,,,0,736,bm,
FL_normal_V1,17,26,right,female,50,,,,MTproc,,,,,1,1219,in,
FL_normal_V1,17,26,right,female,50,,,,MTproc,,,,,1,1086,bn,
FL_normal_V1,17,26,right,female,50,,,,MTproc,,,,,1,1025,bm,
FL_normal_V1,17,26,right,female,50,,,,MTproc,,,,,1,1118,mn,
FL_normal_V1,17,26,right,female,50,,,,MTproc,,,,,1,1215,in,
FL_normal_V1,17,26,right,female,50,,,,MTproc,,,,,1,756,im,
FL_normal_V1,17,26,right,female,50,,,,MTproc,,,,,1,606,im,
FL_normal_V1,17,26,right,female,51,none,1,477,FLproc,Bekannter,Kreuz.png,Kreis.png,comp,,,,
FL_normal_V1,17,26,right,female,51,Mutter,1,581,FLproc,Bekannter,Quadrat.png,Kreis.png,incomp,,,,
FL_normal_V1,17,26,right,female,51,Bekannter,1,592,FLproc,Ich,Kreis.png,Dreieck.png,incomp,,,,
FL_normal_V1,17,26,right,female,51,none,1,579,FLproc,none,Kreuz.png,Kreuz.png,comp,,,,
FL_normal_V1,17,26,right,female,51,Ich,1,583,FLproc,Mutter,Dreieck.png,Quadrat.png,comp,,,,
FL_normal_V1,17,26,right,female,51,Ich,1,376,FLproc,none,Dreieck.png,Kreuz.png,incomp,,,,
FL_normal_V1,17,26,right,female,51,Ich,1,581,FLproc,Bekannter,Dreieck.png,Kreis.png,incomp,,,,
FL_normal_V1,17,26,right,female,51,Mutter,1,472,FLproc,Mutter,Quadrat.png,Quadrat.png,comp,,,,
FL_normal_V1,17,26,right,female,51,none,1,640,FLproc,Mutter,Kreuz.png,Quadrat.png,incomp,,,,
FL_normal_V1,17,26,right,female,51,Bekannter,1,489,FLproc,Bekannter,Kreis.png,Kreis.png,comp,,,,
FL_normal_V1,17,26,right,female,51,Bekannter,1,376,FLproc,none,Kreis.png,Kreuz.png,comp,,,,
FL_normal_V1,17,26,right,female,51,Mutter,1,637,FLproc,Ich,Quadrat.png,Dreieck.png,comp,,,,
FL_normal_V1,17,26,right,female,51,none,1,814,FLproc,Ich,Kreuz.png,Dreieck.png,incomp,,,,
FL_normal_V1,17,26,right,female,51,Ich,1,454,FLproc,Ich,Dreieck.png,Dreieck.png,comp,,,,
FL_normal_V1,17,26,right,female,51,Bekannter,1,1063,FLproc,Mutter,Kreis.png,Quadrat.png,incomp,,,,
FL_normal_V1,17,26,right,female,51,Mutter,1,501,FLproc,none,Quadrat.png,Kreuz.png,incomp,,,,
FL_normal_V1,17,26,right,female,51,Mutter,1,523,FLproc,Bekannter,Quadrat.png,Kreis.png,incomp,,,,
FL_normal_V1,17,26,right,female,51,Bekannter,1,497,FLproc,none,Kreis.png,Kreuz.png,comp,,,,
FL_normal_V1,17,26,right,female,51,Mutter,1,560,FLproc,Mutter,Quadrat.png,Quadrat.png,comp,,,,
FL_normal_V1,17,26,right,female,51,Ich,1,620,FLproc,none,Dreieck.png,Kreuz.png,incomp,,,,
FL_normal_V1,17,26,right,female,51,none,1,1293,FLproc,Ich,Kreuz.png,Dreieck.png,incomp,,,,
FL_normal_V1,17,26,right,female,51,Mutter,1,440,FLproc,none,Quadrat.png,Kreuz.png,incomp,,,,
FL_normal_V1,17,26,right,female,51,none,1,641,FLproc,Mutter,Kreuz.png,Quadrat.png,incomp,,,,
FL_normal_V1,17,26,right,female,51,none,1,482,FLproc,none,Kreuz.png,Kreuz.png,comp,,,,
FL_normal_V1,17,26,right,female,51,Bekannter,0,425,FLproc,Ich,Kreis.png,Dreieck.png,incomp,,,,
FL_normal_V1,17,26,right,female,51,Bekannter,1,732,FLproc,Mutter,Kreis.png,Quadrat.png,incomp,,,,
FL_normal_V1,17,26,right,female,51,Ich,1,528,FLproc,Bekannter,Dreieck.png,Kreis.png,incomp,,,,
FL_normal_V1,17,26,right,female,51,Ich,1,606,FLproc,Mutter,Dreieck.png,Quadrat.png,comp,,,,
FL_normal_V1,17,26,right,female,51,Ich,1,912,FLproc,Ich,Dreieck.png,Dreieck.png,comp,,,,
FL_normal_V1,17,26,right,female,51,Mutter,1,660,FLproc,Ich,Quadrat.png,Dreieck.png,comp,,,,
FL_normal_V1,17,26,right,female,51,Bekannter,1,540,FLproc,Bekannter,Kreis.png,Kreis.png,comp,,,,
FL_normal_V1,17,26,right,female,51,none,1,400,FLproc,Bekannter,Kreuz.png,Kreis.png,comp,,,,
FL_normal_V1,17,26,right,female,51,Ich,1,675,FLproc,Ich,Dreieck.png,Dreieck.png,comp,,,,
FL_normal_V1,17,26,right,female,51,Ich,1,706,FLproc,none,Dreieck.png,Kreuz.png,incomp,,,,
FL_normal_V1,17,26,right,female,51,none,1,567,FLproc,Ich,Kreuz.png,Dreieck.png,incomp,,,,
FL_normal_V1,17,26,right,female,51,Bekannter,1,563,FLproc,Bekannter,Kreis.png,Kreis.png,comp,,,,
FL_normal_V1,17,26,right,female,51,Bekannter,1,559,FLproc,none,Kreis.png,Kreuz.png,comp,,,,
FL_normal_V1,17,26,right,female,51,Mutter,1,668,FLproc,Ich,Quadrat.png,Dreieck.png,comp,,,,
FL_normal_V1,17,26,right,female,51,Ich,1,995,FLproc,Mutter,Dreieck.png,Quadrat.png,comp,,,,
FL_normal_V1,17,26,right,female,51,none,1,467,FLproc,Mutter,Kreuz.png,Quadrat.png,incomp,,,,
FL_normal_V1,17,26,right,female,51,Mutter,1,451,FLproc,Mutter,Quadrat.png,Quadrat.png,comp,,,,
FL_normal_V1,17,26,right,female,51,Ich,1,716,FLproc,Bekannter,Dreieck.png,Kreis.png,incomp,,,,
FL_normal_V1,17,26,right,female,51,Bekannter,1,641,FLproc,Mutter,Kreis.png,Quadrat.png,incomp,,,,
FL_normal_V1,17,26,right,female,51,Mutter,1,440,FLproc,Bekannter,Quadrat.png,Kreis.png,incomp,,,,
FL_normal_V1,17,26,right,female,51,none,1,490,FLproc,none,Kreuz.png,Kreuz.png,comp,,,,
FL_normal_V1,17,26,right,female,51,Bekannter,1,513,FLproc,Ich,Kreis.png,Dreieck.png,incomp,,,,
FL_normal_V1,17,26,right,female,51,none,1,455,FLproc,Bekannter,Kreuz.png,Kreis.png,comp,,,,
FL_normal_V1,17,26,right,female,51,Mutter,1,336,FLproc,none,Quadrat.png,Kreuz.png,incomp,,,,
FL_normal_V1,17,26,right,female,52,,,,MTproc,,,,,1,1040,bn,
FL_normal_V1,17,26,right,female,52,,,,MTproc,,,,,0,0,bm,
FL_normal_V1,17,26,right,female,52,,,,MTproc,,,,,0,700,mm,
FL_normal_V1,17,26,right,female,52,,,,MTproc,,,,,0,688,mm,
FL_normal_V1,17,26,right,female,52,,,,MTproc,,,,,1,1157,bm,
FL_normal_V1,17,26,right,female,52,,,,MTproc,,,,,1,453,im,
FL_normal_V1,17,26,right,female,52,,,,MTproc,,,,,1,732,in,
FL_normal_V1,17,26,right,female,52,,,,MTproc,,,,,1,704,mn,
FL_normal_V1,17,26,right,female,52,,,,MTproc,,,,,1,844,in,
FL_normal_V1,17,26,right,female,52,,,,MTproc,,,,,1,738,bn,
FL_normal_V1,17,26,right,female,52,,,,MTproc,,,,,1,909,mn,
FL_normal_V1,17,26,right,female,52,,,,MTproc,,,,,1,632,im,
FL_normal_V1,17,26,right,female,52,,,,MTproc,,,,,1,799,in,
FL_normal_V1,17,26,right,female,52,,,,MTproc,,,,,1,798,im,
FL_normal_V1,17,26,right,female,52,,,,MTproc,,,,,1,1047,bm,
FL_normal_V1,17,26,right,female,52,,,,MTproc,,,,,1,596,mm,
FL_normal_V1,17,26,right,female,52,,,,MTproc,,,,,1,861,mn,
FL_normal_V1,17,26,right,female,52,,,,MTproc,,,,,1,1010,in,
FL_normal_V1,17,26,right,female,52,,,,MTproc,,,,,1,849,mn,
FL_normal_V1,17,26,right,female,52,,,,MTproc,,,,,1,702,im,
FL_normal_V1,17,26,right,female,52,,,,MTproc,,,,,1,882,mm,
FL_normal_V1,17,26,right,female,52,,,,MTproc,,,,,1,1351,bn,
FL_normal_V1,17,26,right,female,52,,,,MTproc,,,,,1,1133,bm,
FL_normal_V1,17,26,right,female,52,,,,MTproc,,,,,1,958,bn,
FL_normal_V1,17,26,right,female,52,,,,MTproc,,,,,1,830,mm,
FL_normal_V1,17,26,right,female,52,,,,MTproc,,,,,0,1301,bm,
FL_normal_V1,17,26,right,female,52,,,,MTproc,,,,,1,1102,im,
FL_normal_V1,17,26,right,female,52,,,,MTproc,,,,,1,872,mn,
FL_normal_V1,17,26,right,female,52,,,,MTproc,,,,,1,1332,in,
FL_normal_V1,17,26,right,female,52,,,,MTproc,,,,,1,964,bm,
FL_normal_V1,17,26,right,female,52,,,,MTproc,,,,,1,1149,bn,
FL_normal_V1,17,26,right,female,52,,,,MTproc,,,,,1,748,bn,
FL_normal_V1,17,26,right,female,52,,,,MTproc,,,,,1,542,im,
FL_normal_V1,17,26,right,female,52,,,,MTproc,,,,,1,602,mm,
FL_normal_V1,17,26,right,female,52,,,,MTproc,,,,,1,699,mn,
FL_normal_V1,17,26,right,female,52,,,,MTproc,,,,,1,1095,in,
FL_normal_V1,17,26,right,female,52,,,,MTproc,,,,,1,778,mm,
FL_normal_V1,17,26,right,female,52,,,,MTproc,,,,,0,0,in,
FL_normal_V1,17,26,right,female,52,,,,MTproc,,,,,1,939,mn,
FL_normal_V1,17,26,right,female,52,,,,MTproc,,,,,1,444,mm,
FL_normal_V1,17,26,right,female,52,,,,MTproc,,,,,1,693,bn,
FL_normal_V1,17,26,right,female,52,,,,MTproc,,,,,1,658,im,
FL_normal_V1,17,26,right,female,52,,,,MTproc,,,,,0,0,im,
FL_normal_V1,17,26,right,female,52,,,,MTproc,,,,,1,1032,bn,
FL_normal_V1,17,26,right,female,52,,,,MTproc,,,,,1,885,mn,
FL_normal_V1,17,26,right,female,52,,,,MTproc,,,,,1,1057,bm,
FL_normal_V1,17,26,right,female,52,,,,MTproc,,,,,1,965,bm,
FL_normal_V1,17,26,right,female,52,,,,MTproc,,,,,1,678,in,
FL_normal_V1,17,26,right,female,53,none,1,622,FLproc,Mutter,Kreuz.png,Quadrat.png,incomp,,,,
FL_normal_V1,17,26,right,female,53,Bekannter,1,711,FLproc,Ich,Kreis.png,Dreieck.png,incomp,,,,
FL_normal_V1,17,26,right,female,53,none,1,452,FLproc,Bekannter,Kreuz.png,Kreis.png,comp,,,,
FL_normal_V1,17,26,right,female,53,Mutter,1,573,FLproc,Bekannter,Quadrat.png,Kreis.png,incomp,,,,
FL_normal_V1,17,26,right,female,53,Mutter,1,457,FLproc,none,Quadrat.png,Kreuz.png,incomp,,,,
FL_normal_V1,17,26,right,female,53,none,1,394,FLproc,none,Kreuz.png,Kreuz.png,comp,,,,
FL_normal_V1,17,26,right,female,53,Ich,1,694,FLproc,Ich,Dreieck.png,Dreieck.png,comp,,,,
FL_normal_V1,17,26,right,female,53,Ich,1,356,FLproc,Bekannter,Dreieck.png,Kreis.png,incomp,,,,
FL_normal_V1,17,26,right,female,53,Bekannter,1,338,FLproc,none,Kreis.png,Kreuz.png,comp,,,,
FL_normal_V1,17,26,right,female,53,Bekannter,1,608,FLproc,Mutter,Kreis.png,Quadrat.png,incomp,,,,
FL_normal_V1,17,26,right,female,53,Ich,1,641,FLproc,Mutter,Dreieck.png,Quadrat.png,comp,,,,
FL_normal_V1,17,26,right,female,53,Mutter,1,506,FLproc,Ich,Quadrat.png,Dreieck.png,comp,,,,
FL_normal_V1,17,26,right,female,53,none,1,720,FLproc,Ich,Kreuz.png,Dreieck.png,incomp,,,,
FL_normal_V1,17,26,right,female,53,Mutter,1,573,FLproc,Mutter,Quadrat.png,Quadrat.png,comp,,,,
FL_normal_V1,17,26,right,female,53,Ich,1,488,FLproc,none,Dreieck.png,Kreuz.png,incomp,,,,
FL_normal_V1,17,26,right,female,53,Bekannter,1,384,FLproc,Bekannter,Kreis.png,Kreis.png,comp,,,,
FL_normal_V1,17,26,right,female,53,Mutter,1,476,FLproc,Bekannter,Quadrat.png,Kreis.png,incomp,,,,
FL_normal_V1,17,26,right,female,53,Bekannter,1,500,FLproc,none,Kreis.png,Kreuz.png,comp,,,,
FL_normal_V1,17,26,right,female,53,Mutter,1,595,FLproc,Mutter,Quadrat.png,Quadrat.png,comp,,,,
FL_normal_V1,17,26,right,female,53,none,1,606,FLproc,none,Kreuz.png,Kreuz.png,comp,,,,
FL_normal_V1,17,26,right,female,53,Bekannter,1,480,FLproc,Bekannter,Kreis.png,Kreis.png,comp,,,,
FL_normal_V1,17,26,right,female,53,Ich,1,544,FLproc,none,Dreieck.png,Kreuz.png,incomp,,,,
FL_normal_V1,17,26,right,female,53,none,1,1228,FLproc,Ich,Kreuz.png,Dreieck.png,incomp,,,,
FL_normal_V1,17,26,right,female,53,Bekannter,1,441,FLproc,Mutter,Kreis.png,Quadrat.png,incomp,,,,
FL_normal_V1,17,26,right,female,53,Bekannter,1,531,FLproc,Ich,Kreis.png,Dreieck.png,incomp,,,,
FL_normal_V1,17,26,right,female,53,none,1,832,FLproc,Mutter,Kreuz.png,Quadrat.png,incomp,,,,
FL_normal_V1,17,26,right,female,53,none,1,504,FLproc,Bekannter,Kreuz.png,Kreis.png,comp,,,,
FL_normal_V1,17,26,right,female,53,Ich,1,710,FLproc,Ich,Dreieck.png,Dreieck.png,comp,,,,
FL_normal_V1,17,26,right,female,53,Ich,1,860,FLproc,Mutter,Dreieck.png,Quadrat.png,comp,,,,
FL_normal_V1,17,26,right,female,53,Mutter,1,594,FLproc,none,Quadrat.png,Kreuz.png,incomp,,,,
FL_normal_V1,17,26,right,female,53,Ich,1,437,FLproc,Bekannter,Dreieck.png,Kreis.png,incomp,,,,
FL_normal_V1,17,26,right,female,53,Mutter,1,1055,FLproc,Ich,Quadrat.png,Dreieck.png,comp,,,,
FL_normal_V1,17,26,right,female,53,none,1,540,FLproc,none,Kreuz.png,Kreuz.png,comp,,,,
FL_normal_V1,17,26,right,female,53,Bekannter,1,441,FLproc,Bekannter,Kreis.png,Kreis.png,comp,,,,
FL_normal_V1,17,26,right,female,53,Bekannter,1,523,FLproc,none,Kreis.png,Kreuz.png,comp,,,,
FL_normal_V1,17,26,right,female,53,Ich,1,776,FLproc,Ich,Dreieck.png,Dreieck.png,comp,,,,
FL_normal_V1,17,26,right,female,53,Bekannter,1,882,FLproc,Mutter,Kreis.png,Quadrat.png,incomp,,,,
FL_normal_V1,17,26,right,female,53,none,0,504,FLproc,Ich,Kreuz.png,Dreieck.png,incomp,,,,
FL_normal_V1,17,26,right,female,53,Ich,1,527,FLproc,none,Dreieck.png,Kreuz.png,incomp,,,,
FL_normal_V1,17,26,right,female,53,Ich,1,428,FLproc,Bekannter,Dreieck.png,Kreis.png,incomp,,,,
FL_normal_V1,17,26,right,female,53,Mutter,1,551,FLproc,none,Quadrat.png,Kreuz.png,incomp,,,,
FL_normal_V1,17,26,right,female,53,none,1,643,FLproc,Mutter,Kreuz.png,Quadrat.png,incomp,,,,
FL_normal_V1,17,26,right,female,53,none,1,1204,FLproc,Bekannter,Kreuz.png,Kreis.png,comp,,,,
FL_normal_V1,17,26,right,female,53,Ich,1,514,FLproc,Mutter,Dreieck.png,Quadrat.png,comp,,,,
FL_normal_V1,17,26,right,female,53,Mutter,1,696,FLproc,Mutter,Quadrat.png,Quadrat.png,comp,,,,
FL_normal_V1,17,26,right,female,53,Mutter,1,350,FLproc,Ich,Quadrat.png,Dreieck.png,comp,,,,
FL_normal_V1,17,26,right,female,53,Mutter,1,772,FLproc,Bekannter,Quadrat.png,Kreis.png,incomp,,,,
FL_normal_V1,17,26,right,female,53,Bekannter,1,741,FLproc,Ich,Kreis.png,Dreieck.png,incomp,,,,
FL_normal_V1,17,26,right,female,54,,,,MTproc,,,,,1,773,mm,
FL_normal_V1,17,26,right,female,54,,,,MTproc,,,,,1,558,im,
FL_normal_V1,17,26,right,female,54,,,,MTproc,,,,,1,498,bm,
FL_normal_V1,17,26,right,female,54,,,,MTproc,,,,,1,519,bm,
FL_normal_V1,17,26,right,female,54,,,,MTproc,,,,,1,732,bn,
FL_normal_V1,17,26,right,female,54,,,,MTproc,,,,,1,934,mn,
FL_normal_V1,17,26,right,female,54,,,,MTproc,,,,,1,696,im,
FL_normal_V1,17,26,right,female,54,,,,MTproc,,,,,1,1380,in,
FL_normal_V1,17,26,right,female,54,,,,MTproc,,,,,1,922,in,
FL_normal_V1,17,26,right,female,54,,,,MTproc,,,,,1,796,mn,
FL_normal_V1,17,26,right,female,54,,,,MTproc,,,,,1,621,mm,
FL_normal_V1,17,26,right,female,54,,,,MTproc,,,,,1,821,bn,
FL_normal_V1,17,26,right,female,54,,,,MTproc,,,,,1,755,bm,
FL_normal_V1,17,26,right,female,54,,,,MTproc,,,,,1,757,mn,
FL_normal_V1,17,26,right,female,54,,,,MTproc,,,,,1,511,im,
FL_normal_V1,17,26,right,female,54,,,,MTproc,,,,,1,1052,bn,
FL_normal_V1,17,26,right,female,54,,,,MTproc,,,,,1,752,in,
FL_normal_V1,17,26,right,female,54,,,,MTproc,,,,,1,666,im,
FL_normal_V1,17,26,right,female,54,,,,MTproc,,,,,1,895,in,
FL_normal_V1,17,26,right,female,54,,,,MTproc,,,,,1,1075,bn,
FL_normal_V1,17,26,right,female,54,,,,MTproc,,,,,1,942,bm,
FL_normal_V1,17,26,right,female,54,,,,MTproc,,,,,1,768,mn,
FL_normal_V1,17,26,right,female,54,,,,MTproc,,,,,1,641,mm,
FL_normal_V1,17,26,right,female,54,,,,MTproc,,,,,1,480,mm,
FL_normal_V1,17,26,right,female,54,,,,MTproc,,,,,1,1015,bn,
FL_normal_V1,17,26,right,female,54,,,,MTproc,,,,,1,941,in,
FL_normal_V1,17,26,right,female,54,,,,MTproc,,,,,1,878,mm,
FL_normal_V1,17,26,right,female,54,,,,MTproc,,,,,1,954,in,
FL_normal_V1,17,26,right,female,54,,,,MTproc,,,,,0,0,bn,
FL_normal_V1,17,26,right,female,54,,,,MTproc,,,,,0,0,bm,
FL_normal_V1,17,26,right,female,54,,,,MTproc,,,,,1,1003,mn,
FL_normal_V1,17,26,right,female,54,,,,MTproc,,,,,1,706,mm,
FL_normal_V1,17,26,right,female,54,,,,MTproc,,,,,0,0,im,
FL_normal_V1,17,26,right,female,54,,,,MTproc,,,,,1,982,im,
FL_normal_V1,17,26,right,female,54,,,,MTproc,,,,,1,1069,mn,
FL_normal_V1,17,26,right,female,54,,,,MTproc,,,,,1,800,bm,
FL_normal_V1,17,26,right,female,54,,,,MTproc,,,,,1,840,mm,
FL_normal_V1,17,26,right,female,54,,,,MTproc,,,,,1,654,bm,
FL_normal_V1,17,26,right,female,54,,,,MTproc,,,,,1,972,bn,
FL_normal_V1,17,26,right,female,54,,,,MTproc,,,,,1,748,bm,
FL_normal_V1,17,26,right,female,54,,,,MTproc,,,,,1,959,bn,
FL_normal_V1,17,26,right,female,54,,,,MTproc,,,,,1,656,im,
FL_normal_V1,17,26,right,female,54,,,,MTproc,,,,,1,830,in,
FL_normal_V1,17,26,right,female,54,,,,MTproc,,,,,1,1181,mn,
FL_normal_V1,17,26,right,female,54,,,,MTproc,,,,,1,948,mn,
FL_normal_V1,17,26,right,female,54,,,,MTproc,,,,,1,724,mm,
FL_normal_V1,17,26,right,female,54,,,,MTproc,,,,,1,847,in,
FL_normal_V1,17,26,right,female,54,,,,MTproc,,,,,1,613,im,
FL_normal_V1,17,26,right,female,55,,,,,,,,,,,,
FL_normal_V1,17,26,right,female,56,,,,,,,,,,,,
FL_normal_V1,17,26,right,female,57,,,,,,,,,,,,
FL_normal_V1,17,26,right,female,58,,,,,,,,,,,,
FL_normal_V1,17,26,right,female,59,,,,,,,,,,,,
FL_normal_V1,17,26,right,female,60,,,,,,,,,,,,
FL_normal_V1,17,26,right,female,61,,,,,,,,,,,,
FL_normal_V1,17,26,right,female,62,,,,,,,,,,,,
FL_normal_V1,17,26,right,female,63,,,,,,,,,,,,
FL_normal_V1,17,26,right,female,64,,,,,,,,,,,,
FL_normal_V1,21,19,right,female,1,,,,,,,,,,,,in
FL_normal_V1,21,19,right,female,2,,,,,,,,,,,,bm
FL_normal_V1,21,19,right,female,3,,,,,,,,,,,,mn
FL_normal_V1,21,19,right,female,4,,,,,,,,,,,,im
FL_normal_V1,21,19,right,female,5,,,,,,,,,,,,bn
FL_normal_V1,21,19,right,female,6,,,,,,,,,,,,mm
FL_normal_V1,21,19,right,female,7,,,,,,,,,,,,in
FL_normal_V1,21,19,right,female,8,,,,,,,,,,,,mm
FL_normal_V1,21,19,right,female,9,,,,,,,,,,,,im
FL_normal_V1,21,19,right,female,10,,,,,,,,,,,,bn
FL_normal_V1,21,19,right,female,11,,,,,,,,,,,,mn
FL_normal_V1,21,19,right,female,12,,,,,,,,,,,,bm
FL_normal_V1,21,19,right,female,13,,,,,,,,,,,,mn
FL_normal_V1,21,19,right,female,14,,,,,,,,,,,,in
FL_normal_V1,21,19,right,female,15,,,,,,,,,,,,bn
FL_normal_V1,21,19,right,female,16,,,,,,,,,,,,im
FL_normal_V1,21,19,right,female,17,,,,,,,,,,,,mn
FL_normal_V1,21,19,right,female,18,,,,,,,,,,,,mm
FL_normal_V1,21,19,right,female,19,,,,,,,,,,,,im
FL_normal_V1,21,19,right,female,20,,,,,,,,,,,,bm
FL_normal_V1,21,19,right,female,21,,,,,,,,,,,,bn
FL_normal_V1,21,19,right,female,22,,,,,,,,,,,,mm
FL_normal_V1,21,19,right,female,23,,,,,,,,,,,,in
FL_normal_V1,21,19,right,female,24,,,,,,,,,,,,bm
FL_normal_V1,21,19,right,female,25,,,,,,,,,,,,mm
FL_normal_V1,21,19,right,female,26,,,,,,,,,,,,bm
FL_normal_V1,21,19,right,female,27,,,,,,,,,,,,in
FL_normal_V1,21,19,right,female,28,,,,,,,,,,,,bn
FL_normal_V1,21,19,right,female,29,,,,,,,,,,,,mn
FL_normal_V1,21,19,right,female,30,,,,,,,,,,,,mm
FL_normal_V1,21,19,right,female,31,,,,,,,,,,,,im
FL_normal_V1,21,19,right,female,32,,,,,,,,,,,,im
FL_normal_V1,21,19,right,female,33,,,,,,,,,,,,bm
FL_normal_V1,21,19,right,female,34,,,,,,,,,,,,bn
FL_normal_V1,21,19,right,female,35,,,,,,,,,,,,in
FL_normal_V1,21,19,right,female,36,,,,,,,,,,,,mn
FL_normal_V1,21,19,right,female,37,,,,,,,,,,,,in
FL_normal_V1,21,19,right,female,38,,,,,,,,,,,,in
FL_normal_V1,21,19,right,female,39,,,,,,,,,,,,im
FL_normal_V1,21,19,right,female,40,,,,,,,,,,,,mm
FL_normal_V1,21,19,right,female,41,,,,,,,,,,,,bn
FL_normal_V1,21,19,right,female,42,,,,,,,,,,,,mn
FL_normal_V1,21,19,right,female,43,,,,,,,,,,,,bn
FL_normal_V1,21,19,right,female,44,,,,,,,,,,,,mn
FL_normal_V1,21,19,right,female,45,,,,,,,,,,,,bm
FL_normal_V1,21,19,right,female,46,,,,,,,,,,,,mm
FL_normal_V1,21,19,right,female,47,,,,,,,,,,,,bm
FL_normal_V1,21,19,right,female,48,,,,,,,,,,,,im
FL_normal_V1,21,19,right,female,49,Mutter,1,838,FLproc,none,Quadrat.png,Kreuz.png,incomp,,,,
FL_normal_V1,21,19,right,female,49,Mutter,1,1244,FLproc,Mutter,Quadrat.png,Quadrat.png,comp,,,,
FL_normal_V1,21,19,right,female,49,Bekannter,1,577,FLproc,none,Kreis.png,Kreuz.png,comp,,,,
FL_normal_V1,21,19,right,female,49,Mutter,1,453,FLproc,Bekannter,Quadrat.png,Kreis.png,incomp,,,,
FL_normal_V1,21,19,right,female,49,none,1,614,FLproc,none,Kreuz.png,Kreuz.png,comp,,,,
FL_normal_V1,21,19,right,female,49,Ich,1,600,FLproc,Mutter,Dreieck.png,Quadrat.png,comp,,,,
FL_normal_V1,21,19,right,female,49,Bekannter,1,506,FLproc,Mutter,Kreis.png,Quadrat.png,incomp,,,,
FL_normal_V1,21,19,right,female,49,none,0,672,FLproc,Ich,Kreuz.png,Dreieck.png,incomp,,,,
FL_normal_V1,21,19,right,female,49,Bekannter,1,631,FLproc,Ich,Kreis.png,Dreieck.png,incomp,,,,
FL_normal_V1,21,19,right,female,49,none,1,656,FLproc,Bekannter,Kreuz.png,Kreis.png,comp,,,,
FL_normal_V1,21,19,right,female,49,Mutter,0,640,FLproc,Ich,Quadrat.png,Dreieck.png,comp,,,,
FL_normal_V1,21,19,right,female,49,none,1,880,FLproc,Mutter,Kreuz.png,Quadrat.png,incomp,,,,
FL_normal_V1,21,19,right,female,49,Ich,1,502,FLproc,none,Dreieck.png,Kreuz.png,incomp,,,,
FL_normal_V1,21,19,right,female,49,Ich,1,1084,FLproc,Ich,Dreieck.png,Dreieck.png,comp,,,,
FL_normal_V1,21,19,right,female,49,Bekannter,1,527,FLproc,Bekannter,Kreis.png,Kreis.png,comp,,,,
FL_normal_V1,21,19,right,female,49,Ich,1,405,FLproc,Bekannter,Dreieck.png,Kreis.png,incomp,,,,
FL_normal_V1,21,19,right,female,49,Bekannter,1,568,FLproc,none,Kreis.png,Kreuz.png,comp,,,,
FL_normal_V1,21,19,right,female,49,none,1,588,FLproc,Bekannter,Kreuz.png,Kreis.png,comp,,,,
FL_normal_V1,21,19,right,female,49,Bekannter,1,903,FLproc,Ich,Kreis.png,Dreieck.png,incomp,,,,
FL_normal_V1,21,19,right,female,49,none,1,483,FLproc,none,Kreuz.png,Kreuz.png,comp,,,,
FL_normal_V1,21,19,right,female,49,Bekannter,1,594,FLproc,Mutter,Kreis.png,Quadrat.png,incomp,,,,
FL_normal_V1,21,19,right,female,49,none,1,565,FLproc,Mutter,Kreuz.png,Quadrat.png,incomp,,,,
FL_normal_V1,21,19,right,female,49,Mutter,1,593,FLproc,Mutter,Quadrat.png,Quadrat.png,comp,,,,
FL_normal_V1,21,19,right,female,49,Mutter,1,1108,FLproc,Ich,Quadrat.png,Dreieck.png,comp,,,,
FL_normal_V1,21,19,right,female,49,Mutter,1,655,FLproc,none,Quadrat.png,Kreuz.png,incomp,,,,
FL_normal_V1,21,19,right,female,49,Ich,1,886,FLproc,Ich,Dreieck.png,Dreieck.png,comp,,,,
FL_normal_V1,21,19,right,female,49,Ich,1,666,FLproc,Bekannter,Dreieck.png,Kreis.png,incomp,,,,
FL_normal_V1,21,19,right,female,49,Mutter,1,593,FLproc,Bekannter,Quadrat.png,Kreis.png,incomp,,,,
FL_normal_V1,21,19,right,female,49,Bekannter,1,476,FLproc,Bekannter,Kreis.png,Kreis.png,comp,,,,
FL_normal_V1,21,19,right,female,49,Ich,1,700,FLproc,Mutter,Dreieck.png,Quadrat.png,comp,,,,
FL_normal_V1,21,19,right,female,49,Ich,1,490,FLproc,none,Dreieck.png,Kreuz.png,incomp,,,,
FL_normal_V1,21,19,right,female,49,none,1,745,FLproc,Ich,Kreuz.png,Dreieck.png,incomp,,,,
FL_normal_V1,21,19,right,female,49,Bekannter,1,461,FLproc,Bekannter,Kreis.png,Kreis.png,comp,,,,
FL_normal_V1,21,19,right,female,49,none,1,790,FLproc,Ich,Kreuz.png,Dreieck.png,incomp,,,,
FL_normal_V1,21,19,right,female,49,Bekannter,0,512,FLproc,Ich,Kreis.png,Dreieck.png,incomp,,,,
FL_normal_V1,21,19,right,female,49,none,1,662,FLproc,Bekannter,Kreuz.png,Kreis.png,comp,,,,
FL_normal_V1,21,19,right,female,49,Ich,1,574,FLproc,Bekannter,Dreieck.png,Kreis.png,incomp,,,,
FL_normal_V1,21,19,right,female,49,Mutter,1,633,FLproc,none,Quadrat.png,Kreuz.png,incomp,,,,
FL_normal_V1,21,19,right,female,49,Mutter,1,770,FLproc,Bekannter,Quadrat.png,Kreis.png,incomp,,,,
FL_normal_V1,21,19,right,female,49,Mutter,1,547,FLproc,Ich,Quadrat.png,Dreieck.png,comp,,,,
FL_normal_V1,21,19,right,female,49,Bekannter,1,456,FLproc,none,Kreis.png,Kreuz.png,comp,,,,
FL_normal_V1,21,19,right,female,49,Bekannter,1,473,FLproc,Mutter,Kreis.png,Quadrat.png,incomp,,,,
FL_normal_V1,21,19,right,female,49,Ich,1,625,FLproc,Mutter,Dreieck.png,Quadrat.png,comp,,,,
FL_normal_V1,21,19,right,female,49,none,1,586,FLproc,none,Kreuz.png,Kreuz.png,comp,,,,
FL_normal_V1,21,19,right,female,49,Ich,1,381,FLproc,none,Dreieck.png,Kreuz.png,incomp,,,,
FL_normal_V1,21,19,right,female,49,none,1,537,FLproc,Mutter,Kreuz.png,Quadrat.png,incomp,,,,
FL_normal_V1,21,19,right,female,49,Ich,0,902,FLproc,Ich,Dreieck.png,Dreieck.png,comp,,,,
FL_normal_V1,21,19,right,female,49,Mutter,1,1066,FLproc,Mutter,Quadrat.png,Quadrat.png,comp,,,,
FL_normal_V1,21,19,right,female,50,,,,MTproc,,,,,0,0,bn,
FL_normal_V1,21,19,right,female,50,,,,MTproc,,,,,1,544,im,
FL_normal_V1,21,19,right,female,50,,,,MTproc,,,,,1,820,in,
FL_normal_V1,21,19,right,female,50,,,,MTproc,,,,,0,811,bn,
FL_normal_V1,21,19,right,female,50,,,,MTproc,,,,,1,595,mn,
FL_normal_V1,21,19,right,female,50,,,,MTproc,,,,,1,667,mm,
FL_normal_V1,21,19,right,female,50,,,,MTproc,,,,,1,593,bm,
FL_normal_V1,21,19,right,female,50,,,,MTproc,,,,,1,731,mm,
FL_normal_V1,21,19,right,female,50,,,,MTproc,,,,,1,318,im,
FL_normal_V1,21,19,right,female,50,,,,MTproc,,,,,1,460,bm,
FL_normal_V1,21,19,right,female,50,,,,MTproc,,,,,0,396,mn,
FL_normal_V1,21,19,right,female,50,,,,MTproc,,,,,1,486,in,
FL_normal_V1,21,19,right,female,50,,,,MTproc,,,,,1,477,bn,
FL_normal_V1,21,19,right,female,50,,,,MTproc,,,,,1,500,in,
FL_normal_V1,21,19,right,female,50,,,,MTproc,,,,,1,633,mn,
FL_normal_V1,21,19,right,female,50,,,,MTproc,,,,,1,632,mn,
FL_normal_V1,21,19,right,female,50,,,,MTproc,,,,,1,512,im,
FL_normal_V1,21,19,right,female,50,,,,MTproc,,,,,1,541,mm,
FL_normal_V1,21,19,right,female,50,,,,MTproc,,,,,1,488,bm,
FL_normal_V1,21,19,right,female,50,,,,MTproc,,,,,1,654,mm,
FL_normal_V1,21,19,right,female,50,,,,MTproc,,,,,1,437,in,
FL_normal_V1,21,19,right,female,50,,,,MTproc,,,,,0,357,bm,
FL_normal_V1,21,19,right,female,50,,,,MTproc,,,,,1,393,im,
FL_normal_V1,21,19,right,female,50,,,,MTproc,,,,,1,564,bn,
FL_normal_V1,21,19,right,female,50,,,,MTproc,,,,,1,319,bm,
FL_normal_V1,21,19,right,female,50,,,,MTproc,,,,,1,612,mn,
FL_normal_V1,21,19,right,female,50,,,,MTproc,,,,,0,317,mm,
FL_normal_V1,21,19,right,female,50,,,,MTproc,,,,,1,515,mm,
FL_normal_V1,21,19,right,female,50,,,,MTproc,,,,,0,312,bn,
FL_normal_V1,21,19,right,female,50,,,,MTproc,,,,,0,198,im,
FL_normal_V1,21,19,right,female,50,,,,MTproc,,,,,0,202,mn,
FL_normal_V1,21,19,right,female,50,,,,MTproc,,,,,0,1428,in,
FL_normal_V1,21,19,right,female,50,,,,MTproc,,,,,1,487,im,
FL_normal_V1,21,19,right,female,50,,,,MTproc,,,,,1,477,bn,
FL_normal_V1,21,19,right,female,50,,,,MTproc,,,,,1,588,in,
FL_normal_V1,21,19,right,female,50,,,,MTproc,,,,,1,462,bm,
FL_normal_V1,21,19,right,female,50,,,,MTproc,,,,,1,406,im,
FL_normal_V1,21,19,right,female,50,,,,MTproc,,,,,0,296,in,
FL_normal_V1,21,19,right,female,50,,,,MTproc,,,,,1,614,bn,
FL_normal_V1,21,19,right,female,50,,,,MTproc,,,,,1,446,bn,
FL_normal_V1,21,19,right,female,50,,,,MTproc,,,,,1,463,mm,
FL_normal_V1,21,19,right,female,50,,,,MTproc,,,,,1,239,mn,
FL_normal_V1,21,19,right,female,50,,,,MTproc,,,,,1,527,in,
FL_normal_V1,21,19,right,female,50,,,,MTproc,,,,,1,468,mn,
FL_normal_V1,21,19,right,female,50,,,,MTproc,,,,,0,363,bm,
FL_normal_V1,21,19,right,female,50,,,,MTproc,,,,,1,239,im,
FL_normal_V1,21,19,right,female,50,,,,MTproc,,,,,1,536,bm,
FL_normal_V1,21,19,right,female,50,,,,MTproc,,,,,0,460,mm,
FL_normal_V1,21,19,right,female,51,none,1,629,FLproc,Bekannter,Kreuz.png,Kreis.png,comp,,,,
FL_normal_V1,21,19,right,female,51,Ich,1,877,FLproc,Ich,Dreieck.png,Dreieck.png,comp,,,,
FL_normal_V1,21,19,right,female,51,Bekannter,1,795,FLproc,Mutter,Kreis.png,Quadrat.png,incomp,,,,
FL_normal_V1,21,19,right,female,51,Bekannter,1,556,FLproc,Bekannter,Kreis.png,Kreis.png,comp,,,,
FL_normal_V1,21,19,right,female,51,Bekannter,1,385,FLproc,none,Kreis.png,Kreuz.png,comp,,,,
FL_normal_V1,21,19,right,female,51,none,1,533,FLproc,none,Kreuz.png,Kreuz.png,comp,,,,
FL_normal_V1,21,19,right,female,51,Mutter,1,498,FLproc,none,Quadrat.png,Kreuz.png,incomp,,,,
FL_normal_V1,21,19,right,female,51,Ich,1,393,FLproc,none,Dreieck.png,Kreuz.png,incomp,,,,
FL_normal_V1,21,19,right,female,51,Mutter,1,653,FLproc,Bekannter,Quadrat.png,Kreis.png,incomp,,,,
FL_normal_V1,21,19,right,female,51,Ich,1,516,FLproc,Mutter,Dreieck.png,Quadrat.png,comp,,,,
FL_normal_V1,21,19,right,female,51,Bekannter,1,714,FLproc,Ich,Kreis.png,Dreieck.png,incomp,,,,
FL_normal_V1,21,19,right,female,51,Mutter,1,592,FLproc,Ich,Quadrat.png,Dreieck.png,comp,,,,
FL_normal_V1,21,19,right,female,51,Mutter,1,762,FLproc,Mutter,Quadrat.png,Quadrat.png,comp,,,,
FL_normal_V1,21,19,right,female,51,none,1,389,FLproc,Ich,Kreuz.png,Dreieck.png,incomp,,,,
FL_normal_V1,21,19,right,female,51,Ich,1,385,FLproc,Bekannter,Dreieck.png,Kreis.png,incomp,,,,
FL_normal_V1,21,19,right,female,51,none,1,597,FLproc,Mutter,Kreuz.png,Quadrat.png,incomp,,,,
FL_normal_V1,21,19,right,female,51,none,1,591,FLproc,none,Kreuz.png,Kreuz.png,comp,,,,
FL_normal_V1,21,19,right,female,51,Mutter,1,482,FLproc,none,Quadrat.png,Kreuz.png,incomp,,,,
FL_normal_V1,21,19,right,female,51,Bekannter,1,626,FLproc,Mutter,Kreis.png,Quadrat.png,incomp,,,,
FL_normal_V1,21,19,right,female,51,Ich,1,579,FLproc,Mutter,Dreieck.png,Quadrat.png,comp,,,,
FL_normal_V1,21,19,right,female,51,Mutter,1,631,FLproc,Ich,Quadrat.png,Dreieck.png,comp,,,,
FL_normal_V1,21,19,right,female,51,Ich,1,528,FLproc,Bekannter,Dreieck.png,Kreis.png,incomp,,,,
FL_normal_V1,21,19,right,female,51,Bekannter,1,558,FLproc,none,Kreis.png,Kreuz.png,comp,,,,
FL_normal_V1,21,19,right,female,51,Bekannter,0,466,FLproc,Bekannter,Kreis.png,Kreis.png,comp,,,,
FL_normal_V1,21,19,right,female,51,Mutter,1,554,FLproc,Mutter,Quadrat.png,Quadrat.png,comp,,,,
FL_normal_V1,21,19,right,female,51,Ich,1,439,FLproc,none,Dreieck.png,Kreuz.png,incomp,,,,
FL_normal_V1,21,19,right,female,51,none,1,632,FLproc,Mutter,Kreuz.png,Quadrat.png,incomp,,,,
FL_normal_V1,21,19,right,female,51,none,1,432,FLproc,Bekannter,Kreuz.png,Kreis.png,comp,,,,
FL_normal_V1,21,19,right,female,51,Mutter,1,362,FLproc,Bekannter,Quadrat.png,Kreis.png,incomp,,,,
FL_normal_V1,21,19,right,female,51,Ich,1,463,FLproc,Ich,Dreieck.png,Dreieck.png,comp,,,,
FL_normal_V1,21,19,right,female,51,none,1,1095,FLproc,Ich,Kreuz.png,Dreieck.png,incomp,,,,
FL_normal_V1,21,19,right,female,51,Bekannter,1,675,FLproc,Ich,Kreis.png,Dreieck.png,incomp,,,,
FL_normal_V1,21,19,right,female,51,Bekannter,1,530,FLproc,none,Kreis.png,Kreuz.png,comp,,,,
FL_normal_V1,21,19,right,female,51,Mutter,1,488,FLproc,none,Quadrat.png,Kreuz.png,incomp,,,,
FL_normal_V1,21,19,right,female,51,Ich,1,519,FLproc,none,Dreieck.png,Kreuz.png,incomp,,,,
FL_normal_V1,21,19,right,female,51,Mutter,1,533,FLproc,Mutter,Quadrat.png,Quadrat.png,comp,,,,
FL_normal_V1,21,19,right,female,51,Mutter,1,570,FLproc,Ich,Quadrat.png,Dreieck.png,comp,,,,
FL_normal_V1,21,19,right,female,51,none,1,542,FLproc,none,Kreuz.png,Kreuz.png,comp,,,,
FL_normal_V1,21,19,right,female,51,Ich,1,451,FLproc,Mutter,Dreieck.png,Quadrat.png,comp,,,,
FL_normal_V1,21,19,right,female,51,Ich,1,468,FLproc,Ich,Dreieck.png,Dreieck.png,comp,,,,
FL_normal_V1,21,19,right,female,51,none,1,580,FLproc,Mutter,Kreuz.png,Quadrat.png,incomp,,,,
FL_normal_V1,21,19,right,female,51,none,1,735,FLproc,Bekannter,Kreuz.png,Kreis.png,comp,,,,
FL_normal_V1,21,19,right,female,51,Bekannter,1,339,FLproc,Bekannter,Kreis.png,Kreis.png,comp,,,,
FL_normal_V1,21,19,right,female,51,Bekannter,1,561,FLproc,Ich,Kreis.png,Dreieck.png,incomp,,,,
FL_normal_V1,21,19,right,female,51,Mutter,1,421,FLproc,Bekannter,Quadrat.png,Kreis.png,incomp,,,,
FL_normal_V1,21,19,right,female,51,Bekannter,1,656,FLproc,Mutter,Kreis.png,Quadrat.png,incomp,,,,
FL_normal_V1,21,19,right,female,51,none,0,408,FLproc,Ich,Kreuz.png,Dreieck.png,incomp,,,,
FL_normal_V1,21,19,right,female,51,Ich,1,683,FLproc,Bekannter,Dreieck.png,Kreis.png,incomp,,,,
FL_normal_V1,21,19,right,female,52,,,,MTproc,,,,,1,658,in,
FL_normal_V1,21,19,right,female,52,,,,MTproc,,,,,1,480,im,
FL_normal_V1,21,19,right,female,52,,,,MTproc,,,,,1,615,mn,
FL_normal_V1,21,19,right,female,52,,,,MTproc,,,,,1,503,im,
FL_normal_V1,21,19,right,female,52,,,,MTproc,,,,,1,397,mn,
FL_normal_V1,21,19,right,female,52,,,,MTproc,,,,,1,551,mm,
FL_normal_V1,21,19,right,female,52,,,,MTproc,,,,,1,450,bn,
FL_normal_V1,21,19,right,female,52,,,,MTproc,,,,,1,306,bm,
FL_normal_V1,21,19,right,female,52,,,,MTproc,,,,,1,392,bn,
FL_normal_V1,21,19,right,female,52,,,,MTproc,,,,,0,347,mm,
FL_normal_V1,21,19,right,female,52,,,,MTproc,,,,,0,280,in,
FL_normal_V1,21,19,right,female,52,,,,MTproc,,,,,0,488,bm,
FL_normal_V1,21,19,right,female,52,,,,MTproc,,,,,1,431,mm,
FL_normal_V1,21,19,right,female,52,,,,MTproc,,,,,0,286,mn,
FL_normal_V1,21,19,right,female,52,,,,MTproc,,,,,1,510,in,
FL_normal_V1,21,19,right,female,52,,,,MTproc,,,,,1,491,bn,
FL_normal_V1,21,19,right,female,52,,,,MTproc,,,,,1,273,im,
FL_normal_V1,21,19,right,female,52,,,,MTproc,,,,,1,481,bm,
FL_normal_V1,21,19,right,female,52,,,,MTproc,,,,,0,392,bm,
FL_normal_V1,21,19,right,female,52,,,,MTproc,,,,,1,515,im,
FL_normal_V1,21,19,right,female,52,,,,MTproc,,,,,1,432,mm,
FL_normal_V1,21,19,right,female,52,,,,MTproc,,,,,0,360,mn,
FL_normal_V1,21,19,right,female,52,,,,MTproc,,,,,1,597,in,
FL_normal_V1,21,19,right,female,52,,,,MTproc,,,,,1,582,bn,
FL_normal_V1,21,19,right,female,52,,,,MTproc,,,,,1,512,in,
FL_normal_V1,21,19,right,female,52,,,,MTproc,,,,,1,332,bm,
FL_normal_V1,21,19,right,female,52,,,,MTproc,,,,,1,553,mn,
FL_normal_V1,21,19,right,female,52,,,,MTproc,,,,,1,461,im,
FL_normal_V1,21,19,right,female,52,,,,MTproc,,,,,1,452,bn,
FL_normal_V1,21,19,right,female,52,,,,MTproc,,,,,0,548,in,
FL_normal_V1,21,19,right,female,52,,,,MTproc,,,,,1,544,mm,
FL_normal_V1,21,19,right,female,52,,,,MTproc,,,,,0,532,mm,
FL_normal_V1,21,19,right,female,52,,,,MTproc,,,,,1,872,mn,
FL_normal_V1,21,19,right,female,52,,,,MTproc,,,,,1,540,bm,
FL_normal_V1,21,19,right,female,52,,,,MTproc,,,,,1,576,bn,
FL_normal_V1,21,19,right,female,52,,,,MTproc,,,,,1,298,im,
FL_normal_V1,21,19,right,female,52,,,,MTproc,,,,,1,609,mm,
FL_normal_V1,21,19,right,female,52,,,,MTproc,,,,,1,586,bn,
FL_normal_V1,21,19,right,female,52,,,,MTproc,,,,,0,339,mn,
FL_normal_V1,21,19,right,female,52,,,,MTproc,,,,,0,456,bn,
FL_normal_V1,21,19,right,female,52,,,,MTproc,,,,,1,567,in,
FL_normal_V1,21,19,right,female,52,,,,MTproc,,,,,1,442,bm,
FL_normal_V1,21,19,right,female,52,,,,MTproc,,,,,1,474,in,
FL_normal_V1,21,19,right,female,52,,,,MTproc,,,,,1,377,im,
FL_normal_V1,21,19,right,female,52,,,,MTproc,,,,,1,509,mm,
FL_normal_V1,21,19,right,female,52,,,,MTproc,,,,,0,338,mn,
FL_normal_V1,21,19,right,female,52,,,,MTproc,,,,,1,471,bm,
FL_normal_V1,21,19,right,female,52,,,,MTproc,,,,,1,518,im,
FL_normal_V1,21,19,right,female,53,Bekannter,1,507,FLproc,none,Kreis.png,Kreuz.png,comp,,,,
FL_normal_V1,21,19,right,female,53,Ich,1,514,FLproc,Ich,Dreieck.png,Dreieck.png,comp,,,,
FL_normal_V1,21,19,right,female,53,Ich,1,400,FLproc,Mutter,Dreieck.png,Quadrat.png,comp,,,,
FL_normal_V1,21,19,right,female,53,none,1,371,FLproc,Ich,Kreuz.png,Dreieck.png,incomp,,,,
FL_normal_V1,21,19,right,female,53,Bekannter,1,488,FLproc,Mutter,Kreis.png,Quadrat.png,incomp,,,,
FL_normal_V1,21,19,right,female,53,none,1,375,FLproc,none,Kreuz.png,Kreuz.png,comp,,,,
FL_normal_V1,21,19,right,female,53,none,1,540,FLproc,Mutter,Kreuz.png,Quadrat.png,incomp,,,,
FL_normal_V1,21,19,right,female,53,Ich,1,489,FLproc,none,Dreieck.png,Kreuz.png,incomp,,,,
FL_normal_V1,21,19,right,female,53,Mutter,1,400,FLproc,Mutter,Quadrat.png,Quadrat.png,comp,,,,
FL_normal_V1,21,19,right,female,53,none,1,468,FLproc,Bekannter,Kreuz.png,Kreis.png,comp,,,,
FL_normal_V1,21,19,right,female,53,Mutter,1,604,FLproc,none,Quadrat.png,Kreuz.png,incomp,,,,
FL_normal_V1,21,19,right,female,53,Mutter,1,598,FLproc,Ich,Quadrat.png,Dreieck.png,comp,,,,
FL_normal_V1,21,19,right,female,53,Mutter,0,432,FLproc,Bekannter,Quadrat.png,Kreis.png,incomp,,,,
FL_normal_V1,21,19,right,female,53,Bekannter,1,538,FLproc,Ich,Kreis.png,Dreieck.png,incomp,,,,
FL_normal_V1,21,19,right,female,53,Bekannter,1,462,FLproc,Bekannter,Kreis.png,Kreis.png,comp,,,,
FL_normal_V1,21,19,right,female,53,Ich,1,415,FLproc,Bekannter,Dreieck.png,Kreis.png,incomp,,,,
FL_normal_V1,21,19,right,female,53,Bekannter,1,537,FLproc,Ich,Kreis.png,Dreieck.png,incomp,,,,
FL_normal_V1,21,19,right,female,53,none,1,454,FLproc,Mutter,Kreuz.png,Quadrat.png,incomp,,,,
FL_normal_V1,21,19,right,female,53,Ich,0,623,FLproc,Ich,Dreieck.png,Dreieck.png,comp,,,,
FL_normal_V1,21,19,right,female,53,Bekannter,1,633,FLproc,Bekannter,Kreis.png,Kreis.png,comp,,,,
FL_normal_V1,21,19,right,female,53,Bekannter,1,673,FLproc,Mutter,Kreis.png,Quadrat.png,incomp,,,,
FL_normal_V1,21,19,right,female,53,none,1,752,FLproc,Ich,Kreuz.png,Dreieck.png,incomp,,,,
FL_normal_V1,21,19,right,female,53,none,1,507,FLproc,Bekannter,Kreuz.png,Kreis.png,comp,,,,
FL_normal_V1,21,19,right,female,53,Ich,1,586,FLproc,none,Dreieck.png,Kreuz.png,incomp,,,,
FL_normal_V1,21,19,right,female,53,Ich,1,645,FLproc,Mutter,Dreieck.png,Quadrat.png,comp,,,,
FL_normal_V1,21,19,right,female,53,none,1,509,FLproc,none,Kreuz.png,Kreuz.png,comp,,,,
FL_normal_V1,21,19,right,female,53,Mutter,1,436,FLproc,none,Quadrat.png,Kreuz.png,incomp,,,,
FL_normal_V1,21,19,right,female,53,Mutter,1,541,FLproc,Mutter,Quadrat.png,Quadrat.png,comp,,,,
FL_normal_V1,21,19,right,female,53,Mutter,1,626,FLproc,Ich,Quadrat.png,Dreieck.png,comp,,,,
FL_normal_V1,21,19,right,female,53,Mutter,1,563,FLproc,Bekannter,Quadrat.png,Kreis.png,incomp,,,,
FL_normal_V1,21,19,right,female,53,Ich,1,447,FLproc,Bekannter,Dreieck.png,Kreis.png,incomp,,,,
FL_normal_V1,21,19,right,female,53,Bekannter,1,568,FLproc,none,Kreis.png,Kreuz.png,comp,,,,
FL_normal_V1,21,19,right,female,53,none,1,524,FLproc,none,Kreuz.png,Kreuz.png,comp,,,,
FL_normal_V1,21,19,right,female,53,Bekannter,1,490,FLproc,none,Kreis.png,Kreuz.png,comp,,,,
FL_normal_V1,21,19,right,female,53,Mutter,1,497,FLproc,Mutter,Quadrat.png,Quadrat.png,comp,,,,
FL_normal_V1,21,19,right,female,53,none,1,584,FLproc,Bekannter,Kreuz.png,Kreis.png,comp,,,,
FL_normal_V1,21,19,right,female,53,Bekannter,1,475,FLproc,Mutter,Kreis.png,Quadrat.png,incomp,,,,
FL_normal_V1,21,19,right,female,53,Ich,1,539,FLproc,Ich,Dreieck.png,Dreieck.png,comp,,,,
FL_normal_V1,21,19,right,female,53,none,1,432,FLproc,Mutter,Kreuz.png,Quadrat.png,incomp,,,,
FL_normal_V1,21,19,right,female,53,Mutter,1,426,FLproc,none,Quadrat.png,Kreuz.png,incomp,,,,
FL_normal_V1,21,19,right,female,53,Ich,1,523,FLproc,none,Dreieck.png,Kreuz.png,incomp,,,,
FL_normal_V1,21,19,right,female,53,Bekannter,1,649,FLproc,Ich,Kreis.png,Dreieck.png,incomp,,,,
FL_normal_V1,21,19,right,female,53,none,1,449,FLproc,Ich,Kreuz.png,Dreieck.png,incomp,,,,
FL_normal_V1,21,19,right,female,53,Bekannter,1,498,FLproc,Bekannter,Kreis.png,Kreis.png,comp,,,,
FL_normal_V1,21,19,right,female,53,Ich,1,640,FLproc,Mutter,Dreieck.png,Quadrat.png,comp,,,,
FL_normal_V1,21,19,right,female,53,Mutter,1,497,FLproc,Bekannter,Quadrat.png,Kreis.png,incomp,,,,
FL_normal_V1,21,19,right,female,53,Mutter,1,408,FLproc,Ich,Quadrat.png,Dreieck.png,comp,,,,
FL_normal_V1,21,19,right,female,53,Ich,1,363,FLproc,Bekannter,Dreieck.png,Kreis.png,incomp,,,,
FL_normal_V1,21,19,right,female,54,,,,MTproc,,,,,1,594,bn,
FL_normal_V1,21,19,right,female,54,,,,MTproc,,,,,1,467,im,
FL_normal_V1,21,19,right,female,54,,,,MTproc,,,,,1,409,bn,
FL_normal_V1,21,19,right,female,54,,,,MTproc,,,,,1,387,mn,
FL_normal_V1,21,19,right,female,54,,,,MTproc,,,,,1,374,mm,
FL_normal_V1,21,19,right,female,54,,,,MTproc,,,,,1,274,im,
FL_normal_V1,21,19,right,female,54,,,,MTproc,,,,,1,458,mn,
FL_normal_V1,21,19,right,female,54,,,,MTproc,,,,,0,426,in,
FL_normal_V1,21,19,right,female,54,,,,MTproc,,,,,1,299,in,
FL_normal_V1,21,19,right,female,54,,,,MTproc,,,,,1,442,bm,
FL_normal_V1,21,19,right,female,54,,,,MTproc,,,,,0,370,bm,
FL_normal_V1,21,19,right,female,54,,,,MTproc,,,,,1,374,mm,
FL_normal_V1,21,19,right,female,54,,,,MTproc,,,,,0,177,im,
FL_normal_V1,21,19,right,female,54,,,,MTproc,,,,,1,238,mm,
FL_normal_V1,21,19,right,female,54,,,,MTproc,,,,,1,464,im,
FL_normal_V1,21,19,right,female,54,,,,MTproc,,,,,0,280,in,
FL_normal_V1,21,19,right,female,54,,,,MTproc,,,,,1,455,mn,
FL_normal_V1,21,19,right,female,54,,,,MTproc,,,,,1,319,in,
FL_normal_V1,21,19,right,female,54,,,,MTproc,,,,,0,332,mm,
FL_normal_V1,21,19,right,female,54,,,,MTproc,,,,,0,346,bn,
FL_normal_V1,21,19,right,female,54,,,,MTproc,,,,,1,279,bm,
FL_normal_V1,21,19,right,female,54,,,,MTproc,,,,,0,215,bm,
FL_normal_V1,21,19,right,female,54,,,,MTproc,,,,,0,289,mn,
FL_normal_V1,21,19,right,female,54,,,,MTproc,,,,,1,337,bn,
FL_normal_V1,21,19,right,female,54,,,,MTproc,,,,,0,286,bm,
FL_normal_V1,21,19,right,female,54,,,,MTproc,,,,,0,581,mn,
FL_normal_V1,21,19,right,female,54,,,,MTproc,,,,,0,543,mn,
FL_normal_V1,21,19,right,female,54,,,,MTproc,,,,,1,459,im,
FL_normal_V1,21,19,right,female,54,,,,MTproc,,,,,1,403,in,
FL_normal_V1,21,19,right,female,54,,,,MTproc,,,,,0,348,im,
FL_normal_V1,21,19,right,female,54,,,,MTproc,,,,,1,441,mm,
FL_normal_V1,21,19,right,female,54,,,,MTproc,,,,,1,457,bn,
FL_normal_V1,21,19,right,female,54,,,,MTproc,,,,,1,529,bn,
FL_normal_V1,21,19,right,female,54,,,,MTproc,,,,,1,302,bm,
FL_normal_V1,21,19,right,female,54,,,,MTproc,,,,,1,548,in,
FL_normal_V1,21,19,right,female,54,,,,MTproc,,,,,1,351,mm,
FL_normal_V1,21,19,right,female,54,,,,MTproc,,,,,1,268,bn,
FL_normal_V1,21,19,right,female,54,,,,MTproc,,,,,1,324,im,
FL_normal_V1,21,19,right,female,54,,,,MTproc,,,,,1,314,bm,
FL_normal_V1,21,19,right,female,54,,,,MTproc,,,,,1,352,bn,
FL_normal_V1,21,19,right,female,54,,,,MTproc,,,,,0,388,mm,
FL_normal_V1,21,19,right,female,54,,,,MTproc,,,,,1,487,in,
FL_normal_V1,21,19,right,female,54,,,,MTproc,,,,,1,324,bm,
FL_normal_V1,21,19,right,female,54,,,,MTproc,,,,,1,378,mn,
FL_normal_V1,21,19,right,female,54,,,,MTproc,,,,,1,246,im,
FL_normal_V1,21,19,right,female,54,,,,MTproc,,,,,0,231,mm,
FL_normal_V1,21,19,right,female,54,,,,MTproc,,,,,0,248,in,
FL_normal_V1,21,19,right,female,54,,,,MTproc,,,,,1,425,mn,
FL_normal_V1,21,19,right,female,55,,,,,,,,,,,,
FL_normal_V1,21,19,right,female,56,,,,,,,,,,,,
FL_normal_V1,21,19,right,female,57,,,,,,,,,,,,
FL_normal_V1,21,19,right,female,58,,,,,,,,,,,,
FL_normal_V1,21,19,right,female,59,,,,,,,,,,,,
FL_normal_V1,21,19,right,female,60,,,,,,,,,,,,
FL_normal_V1,21,19,right,female,61,,,,,,,,,,,,
FL_normal_V1,21,19,right,female,62,,,,,,,,,,,,
FL_normal_V1,21,19,right,female,63,,,,,,,,,,,,
FL_normal_V1,21,19,right,female,64,,,,,,,,,,,,
FL_normal_V1,25,20,right,female,1,,,,,,,,,,,,bn
FL_normal_V1,25,20,right,female,2,,,,,,,,,,,,bn
FL_normal_V1,25,20,right,female,3,,,,,,,,,,,,mn
FL_normal_V1,25,20,right,female,4,,,,,,,,,,,,in
FL_normal_V1,25,20,right,female,5,,,,,,,,,,,,bm
FL_normal_V1,25,20,right,female,6,,,,,,,,,,,,mm
FL_normal_V1,25,20,right,female,7,,,,,,,,,,,,in
FL_normal_V1,25,20,right,female,8,,,,,,,,,,,,im
FL_normal_V1,25,20,right,female,9,,,,,,,,,,,,im
FL_normal_V1,25,20,right,female,10,,,,,,,,,,,,bm
FL_normal_V1,25,20,right,female,11,,,,,,,,,,,,mm
FL_normal_V1,25,20,right,female,12,,,,,,,,,,,,mn
FL_normal_V1,25,20,right,female,13,,,,,,,,,,,,mm
FL_normal_V1,25,20,right,female,14,,,,,,,,,,,,bm
FL_normal_V1,25,20,right,female,15,,,,,,,,,,,,mm
FL_normal_V1,25,20,right,female,16,,,,,,,,,,,,mn
FL_normal_V1,25,20,right,female,17,,,,,,,,,,,,im
FL_normal_V1,25,20,right,female,18,,,,,,,,,,,,in
FL_normal_V1,25,20,right,female,19,,,,,,,,,,,,im
FL_normal_V1,25,20,right,female,20,,,,,,,,,,,,bm
FL_normal_V1,25,20,right,female,21,,,,,,,,,,,,mn
FL_normal_V1,25,20,right,female,22,,,,,,,,,,,,bn
FL_normal_V1,25,20,right,female,23,,,,,,,,,,,,bn
FL_normal_V1,25,20,right,female,24,,,,,,,,,,,,in
FL_normal_V1,25,20,right,female,25,,,,,,,,,,,,in
FL_normal_V1,25,20,right,female,26,,,,,,,,,,,,in
FL_normal_V1,25,20,right,female,27,,,,,,,,,,,,mm
