ExperimentName,Subject,Age,Handedness,Sex,Block,Bed,corr[Block],form[Block],Procedure[Block],Match,corr[Trial],form[Trial],Label[Trial],MT4.ACC,MT4.RT,Procedure,ACC,RT,target,Identity,Slide2.ACC,Slide2.RT,PrimeAss
RP_Personenaufg,1,19,right,female,1,in,s,,Mprac,,,,,,,,,,,,,,
RP_Personenaufg,1,19,right,female,2,mn,s,,Mprac,,,,,,,,,,,,,,
RP_Personenaufg,1,19,right,female,3,mn,s,,Mprac,,,,,,,,,,,,,,
RP_Personenaufg,1,19,right,female,4,bm,l,,Mprac,,,,,,,,,,,,,,
RP_Personenaufg,1,19,right,female,5,im,l,,Mprac,,,,,,,,,,,,,,
RP_Personenaufg,1,19,right,female,6,mm,l,,Mprac,,,,,,,,,,,,,,
RP_Personenaufg,1,19,right,female,7,bn,s,,Mprac,,,,,,,,,,,,,,
RP_Personenaufg,1,19,right,female,8,bm,l,,Mprac,,,,,,,,,,,,,,
RP_Personenaufg,1,19,right,female,9,in,s,,Mprac,,,,,,,,,,,,,,
RP_Personenaufg,1,19,right,female,10,bn,s,,Mprac,,,,,,,,,,,,,,
RP_Personenaufg,1,19,right,female,11,im,l,,Mprac,,,,,,,,,,,,,,
RP_Personenaufg,1,19,right,female,12,mm,l,,Mprac,,,,,,,,,,,,,,
RP_Personenaufg,1,19,right,female,13,in,s,,Mprac,,,,,,,,,,,,,,
RP_Personenaufg,1,19,right,female,14,bm,l,,Mprac,,,,,,,,,,,,,,
RP_Personenaufg,1,19,right,female,15,mm,l,,Mprac,,,,,,,,,,,,,,
RP_Personenaufg,1,19,right,female,16,im,l,,Mprac,,,,,,,,,,,,,,
RP_Personenaufg,1,19,right,female,17,bn,s,,Mprac,,,,,,,,,,,,,,
RP_Personenaufg,1,19,right,female,18,bm,l,,Mprac,,,,,,,,,,,,,,
RP_Personenaufg,1,19,right,female,19,mn,s,,Mprac,,,,,,,,,,,,,,
RP_Personenaufg,1,19,right,female,20,im,l,,Mprac,,,,,,,,,,,,,,
RP_Personenaufg,1,19,right,female,21,in,s,,Mprac,,,,,,,,,,,,,,
RP_Personenaufg,1,19,right,female,22,mn,s,,Mprac,,,,,,,,,,,,,,
RP_Personenaufg,1,19,right,female,23,bn,s,,Mprac,,,,,,,,,,,,,,
RP_Personenaufg,1,19,right,female,24,mm,l,,Mprac,,,,,,,,,,,,,,
RP_Personenaufg,1,19,right,female,25,,,,RP,comp,,,,,,RPproc,0,540,square.png,Mutter,,,Mutter
RP_Personenaufg,1,19,right,female,25,,,,RP,incomp,,,,,,RPproc,0,517,square.png,Mutter,,,Bekannter
RP_Personenaufg,1,19,right,female,25,,,,RP,comp,,,,,,RPproc,1,457,circle.png,Bekannter,,,Bekannter
RP_Personenaufg,1,19,right,female,25,,,,RP,comp,,,,,,RPproc,1,397,triangle.png,Ich,,,Ich
RP_Personenaufg,1,19,right,female,25,,,,RP,incomp,,,,,,RPproc,0,869,triangle.png,Ich,,,Bekannter
RP_Personenaufg,1,19,right,female,25,,,,RP,incomp,,,,,,RPproc,1,608,circle.png,Bekannter,,,Ich
RP_Personenaufg,1,19,right,female,25,,,,RP,comp,,,,,,RPproc,1,495,square.png,Mutter,,,Mutter
RP_Personenaufg,1,19,right,female,25,,,,RP,comp,,,,,,RPproc,1,338,triangle.png,Ich,,,Ich
RP_Personenaufg,1,19,right,female,25,,,,RP,comp,,,,,,RPproc,1,525,circle.png,Bekannter,,,Bekannter
RP_Personenaufg,1,19,right,female,25,,,,RP,incomp,,,,,,RPproc,1,639,square.png,Mutter,,,Ich
RP_Personenaufg,1,19,right,female,25,,,,RP,incomp,,,,,,RPproc,1,524,triangle.png,Ich,,,Mutter
RP_Personenaufg,1,19,right,female,25,,,,RP,incomp,,,,,,RPproc,1,534,circle.png,Bekannter,,,Mutter
RP_Personenaufg,1,19,right,female,25,,,,RP,incomp,,,,,,RPproc,1,464,triangle.png,Ich,,,Bekannter
RP_Personenaufg,1,19,right,female,25,,,,RP,incomp,,,,,,RPproc,1,332,square.png,Mutter,,,Bekannter
RP_Personenaufg,1,19,right,female,25,,,,RP,comp,,,,,,RPproc,1,407,triangle.png,Ich,,,Ich
RP_Personenaufg,1,19,right,female,25,,,,RP,comp,,,,,,RPproc,1,375,circle.png,Bekannter,,,Bekannter
RP_Personenaufg,1,19,right,female,25,,,,RP,incomp,,,,,,RPproc,1,423,square.png,Mutter,,,Ich
RP_Personenaufg,1,19,right,female,25,,,,RP,comp,,,,,,RPproc,1,366,triangle.png,Ich,,,Ich
RP_Personenaufg,1,19,right,female,25,,,,RP,incomp,,,,,,RPproc,1,431,triangle.png,Ich,,,Mutter
RP_Personenaufg,1,19,right,female,25,,,,RP,incomp,,,,,,RPproc,1,454,circle.png,Bekannter,,,Mutter
RP_Personenaufg,1,19,right,female,25,,,,RP,comp,,,,,,RPproc,0,715,circle.png,Bekannter,,,Bekannter
RP_Personenaufg,1,19,right,female,25,,,,RP,incomp,,,,,,RPproc,1,509,circle.png,Bekannter,,,Ich
RP_Personenaufg,1,19,right,female,25,,,,RP,comp,,,,,,RPproc,1,368,square.png,Mutter,,,Mutter
RP_Personenaufg,1,19,right,female,25,,,,RP,comp,,,,,,RPproc,1,393,square.png,Mutter,,,Mutter
RP_Personenaufg,1,19,right,female,25,,,,RP,comp,,,,,,RPproc,1,322,triangle.png,Ich,,,Ich
RP_Personenaufg,1,19,right,female,25,,,,RP,incomp,,,,,,RPproc,1,333,circle.png,Bekannter,,,Mutter
RP_Personenaufg,1,19,right,female,25,,,,RP,comp,,,,,,RPproc,1,304,circle.png,Bekannter,,,Bekannter
RP_Personenaufg,1,19,right,female,25,,,,RP,comp,,,,,,RPproc,1,365,triangle.png,Ich,,,Ich
RP_Personenaufg,1,19,right,female,25,,,,RP,incomp,,,,,,RPproc,1,502,triangle.png,Ich,,,Mutter
RP_Personenaufg,1,19,right,female,25,,,,RP,comp,,,,,,RPproc,1,265,circle.png,Bekannter,,,Bekannter
RP_Personenaufg,1,19,right,female,25,,,,RP,comp,,,,,,RPproc,1,311,square.png,Mutter,,,Mutter
RP_Personenaufg,1,19,right,female,25,,,,RP,incomp,,,,,,RPproc,1,459,circle.png,Bekannter,,,Ich
RP_Personenaufg,1,19,right,female,25,,,,RP,incomp,,,,,,RPproc,1,433,triangle.png,Ich,,,Bekannter
RP_Personenaufg,1,19,right,female,25,,,,RP,incomp,,,,,,RPproc,1,511,square.png,Mutter,,,Bekannter
RP_Personenaufg,1,19,right,female,25,,,,RP,incomp,,,,,,RPproc,1,433,square.png,Mutter,,,Ich
RP_Personenaufg,1,19,right,female,25,,,,RP,comp,,,,,,RPproc,1,335,square.png,Mutter,,,Mutter
RP_Personenaufg,1,19,right,female,25,,,,RP,incomp,,,,,,RPproc,1,386,circle.png,Bekannter,,,Mutter
RP_Personenaufg,1,19,right,female,25,,,,RP,incomp,,,,,,RPproc,1,490,triangle.png,Ich,,,Bekannter
RP_Personenaufg,1,19,right,female,25,,,,RP,comp,,,,,,RPproc,1,358,square.png,Mutter,,,Mutter
RP_Personenaufg,1,19,right,female,25,,,,RP,incomp,,,,,,RPproc,1,544,square.png,Mutter,,,Bekannter
RP_Personenaufg,1,19,right,female,25,,,,RP,comp,,,,,,RPproc,1,338,triangle.png,Ich,,,Ich
RP_Personenaufg,1,19,right,female,25,,,,RP,incomp,,,,,,RPproc,1,316,circle.png,Bekannter,,,Ich
RP_Personenaufg,1,19,right,female,25,,,,RP,incomp,,,,,,RPproc,1,496,square.png,Mutter,,,Ich
RP_Personenaufg,1,19,right,female,25,,,,RP,comp,,,,,,RPproc,0,275,circle.png,Bekannter,,,Bekannter
RP_Personenaufg,1,19,right,female,25,,,,RP,comp,,,,,,RPproc,1,458,circle.png,Bekannter,,,Bekannter
RP_Personenaufg,1,19,right,female,25,,,,RP,incomp,,,,,,RPproc,1,463,triangle.png,Ich,,,Mutter
RP_Personenaufg,1,19,right,female,25,,,,RP,comp,,,,,,RPproc,1,308,triangle.png,Ich,,,Ich
RP_Personenaufg,1,19,right,female,25,,,,RP,comp,,,,,,RPproc,1,224,square.png,Mutter,,,Mutter
RP_Personenaufg,1,19,right,female,26,,,,MT,in,s,square.png,Ich,1,945,MTproc,,,,,,,
RP_Personenaufg,1,19,right,female,26,,,,MT,in,s,circle.png,Ich,1,602,MTproc,,,,,,,
RP_Personenaufg,1,19,right,female,26,,,,MT,im,l,triangle.png,Ich,1,411,MTproc,,,,,,,
RP_Personenaufg,1,19,right,female,26,,,,MT,mm,l,square.png,Mutter,0,421,MTproc,,,,,,,
RP_Personenaufg,1,19,right,female,26,,,,MT,bm,l,circle.png,Bekannter,1,494,MTproc,,,,,,,
RP_Personenaufg,1,19,right,female,26,,,,MT,im,l,triangle.png,Ich,1,524,MTproc,,,,,,,
RP_Personenaufg,1,19,right,female,26,,,,MT,bn,s,triangle.png,Bekannter,1,465,MTproc,,,,,,,
RP_Personenaufg,1,19,right,female,26,,,,MT,bn,s,square.png,Bekannter,1,576,MTproc,,,,,,,
RP_Personenaufg,1,19,right,female,26,,,,MT,mm,l,square.png,Mutter,0,354,MTproc,,,,,,,
RP_Personenaufg,1,19,right,female,26,,,,MT,bm,l,circle.png,Bekannter,1,518,MTproc,,,,,,,
RP_Personenaufg,1,19,right,female,26,,,,MT,mn,s,triangle.png,Mutter,1,563,MTproc,,,,,,,
RP_Personenaufg,1,19,right,female,26,,,,MT,mn,s,circle.png,Mutter,1,485,MTproc,,,,,,,
RP_Personenaufg,1,19,right,female,26,,,,MT,bm,l,circle.png,Bekannter,1,452,MTproc,,,,,,,
RP_Personenaufg,1,19,right,female,26,,,,MT,mm,l,square.png,Mutter,0,459,MTproc,,,,,,,
RP_Personenaufg,1,19,right,female,26,,,,MT,in,s,square.png,Ich,1,626,MTproc,,,,,,,
RP_Personenaufg,1,19,right,female,26,,,,MT,in,s,circle.png,Ich,0,538,MTproc,,,,,,,
RP_Personenaufg,1,19,right,female,26,,,,MT,im,l,triangle.png,Ich,1,494,MTproc,,,,,,,
RP_Personenaufg,1,19,right,female,26,,,,MT,mn,s,triangle.png,Mutter,1,532,MTproc,,,,,,,
RP_Personenaufg,1,19,right,female,26,,,,MT,bn,s,square.png,Bekannter,1,632,MTproc,,,,,,,
RP_Personenaufg,1,19,right,female,26,,,,MT,im,l,triangle.png,Ich,1,455,MTproc,,,,,,,
RP_Personenaufg,1,19,right,female,26,,,,MT,mn,s,circle.png,Mutter,0,591,MTproc,,,,,,,
RP_Personenaufg,1,19,right,female,26,,,,MT,bm,l,circle.png,Bekannter,0,576,MTproc,,,,,,,
RP_Personenaufg,1,19,right,female,26,,,,MT,bn,s,triangle.png,Bekannter,1,651,MTproc,,,,,,,
RP_Personenaufg,1,19,right,female,26,,,,MT,mm,l,square.png,Mutter,1,593,MTproc,,,,,,,
RP_Personenaufg,1,19,right,female,26,,,,MT,in,s,circle.png,Ich,1,555,MTproc,,,,,,,
RP_Personenaufg,1,19,right,female,26,,,,MT,im,l,triangle.png,Ich,1,374,MTproc,,,,,,,
RP_Personenaufg,1,19,right,female,26,,,,MT,bn,s,square.png,Bekannter,1,633,MTproc,,,,,,,
RP_Personenaufg,1,19,right,female,26,,,,MT,im,l,triangle.png,Ich,1,481,MTproc,,,,,,,
RP_Personenaufg,1,19,right,female,26,,,,MT,mm,l,square.png,Mutter,0,568,MTproc,,,,,,,
RP_Personenaufg,1,19,right,female,26,,,,MT,mm,l,square.png,Mutter,1,578,MTproc,,,,,,,
RP_Personenaufg,1,19,right,female,26,,,,MT,bm,l,circle.png,Bekannter,1,588,MTproc,,,,,,,
RP_Personenaufg,1,19,right,female,26,,,,MT,mn,s,triangle.png,Mutter,1,534,MTproc,,,,,,,
RP_Personenaufg,1,19,right,female,26,,,,MT,in,s,square.png,Ich,1,545,MTproc,,,,,,,
RP_Personenaufg,1,19,right,female,26,,,,MT,mn,s,circle.png,Mutter,1,637,MTproc,,,,,,,
RP_Personenaufg,1,19,right,female,26,,,,MT,bm,l,circle.png,Bekannter,1,444,MTproc,,,,,,,
RP_Personenaufg,1,19,right,female,26,,,,MT,bn,s,triangle.png,Bekannter,1,492,MTproc,,,,,,,
RP_Personenaufg,1,19,right,female,26,,,,MT,bn,s,square.png,Bekannter,0,594,MTproc,,,,,,,
RP_Personenaufg,1,19,right,female,26,,,,MT,bm,l,circle.png,Bekannter,1,500,MTproc,,,,,,,
RP_Personenaufg,1,19,right,female,26,,,,MT,mn,s,triangle.png,Mutter,0,498,MTproc,,,,,,,
RP_Personenaufg,1,19,right,female,26,,,,MT,im,l,triangle.png,Ich,1,376,MTproc,,,,,,,
RP_Personenaufg,1,19,right,female,26,,,,MT,mm,l,square.png,Mutter,1,315,MTproc,,,,,,,
RP_Personenaufg,1,19,right,female,26,,,,MT,bn,s,triangle.png,Bekannter,1,465,MTproc,,,,,,,
RP_Personenaufg,1,19,right,female,26,,,,MT,im,l,triangle.png,Ich,1,400,MTproc,,,,,,,
RP_Personenaufg,1,19,right,female,26,,,,MT,mn,s,circle.png,Mutter,0,602,MTproc,,,,,,,
RP_Personenaufg,1,19,right,female,26,,,,MT,in,s,square.png,Ich,1,667,MTproc,,,,,,,
RP_Personenaufg,1,19,right,female,26,,,,MT,bm,l,circle.png,Bekannter,0,688,MTproc,,,,,,,
RP_Personenaufg,1,19,right,female,26,,,,MT,mm,l,square.png,Mutter,1,453,MTproc,,,,,,,
RP_Personenaufg,1,19,right,female,26,,,,MT,in,s,circle.png,Ich,1,469,MTproc,,,,,,,
RP_Personenaufg,1,19,right,female,27,,,,RP,incomp,,,,,,RPproc,0,532,circle.png,Bekannter,,,Ich
RP_Personenaufg,1,19,right,female,27,,,,RP,incomp,,,,,,RPproc,1,471,triangle.png,Ich,,,Mutter
RP_Personenaufg,1,19,right,female,27,,,,RP,comp,,,,,,RPproc,1,363,circle.png,Bekannter,,,Bekannter
RP_Personenaufg,1,19,right,female,27,,,,RP,comp,,,,,,RPproc,1,261,square.png,Mutter,,,Mutter
RP_Personenaufg,1,19,right,female,27,,,,RP,incomp,,,,,,RPproc,0,227,square.png,Mutter,,,Bekannter
RP_Personenaufg,1,19,right,female,27,,,,RP,incomp,,,,,,RPproc,1,428,circle.png,Bekannter,,,Mutter
RP_Personenaufg,1,19,right,female,27,,,,RP,incomp,,,,,,RPproc,1,507,triangle.png,Ich,,,Bekannter
RP_Personenaufg,1,19,right,female,27,,,,RP,comp,,,,,,RPproc,1,358,circle.png,Bekannter,,,Bekannter
RP_Personenaufg,1,19,right,female,27,,,,RP,incomp,,,,,,RPproc,1,272,square.png,Mutter,,,Ich
RP_Personenaufg,1,19,right,female,27,,,,RP,comp,,,,,,RPproc,1,246,triangle.png,Ich,,,Ich
RP_Personenaufg,1,19,right,female,27,,,,RP,comp,,,,,,RPproc,1,356,triangle.png,Ich,,,Ich
RP_Personenaufg,1,19,right,female,27,,,,RP,comp,,,,,,RPproc,1,302,square.png,Mutter,,,Mutter
RP_Personenaufg,1,19,right,female,27,,,,RP,incomp,,,,,,RPproc,1,443,circle.png,Bekannter,,,Ich
RP_Personenaufg,1,19,right,female,27,,,,RP,incomp,,,,,,RPproc,1,385,triangle.png,Ich,,,Bekannter
RP_Personenaufg,1,19,right,female,27,,,,RP,comp,,,,,,RPproc,1,320,square.png,Mutter,,,Mutter
RP_Personenaufg,1,19,right,female,27,,,,RP,incomp,,,,,,RPproc,1,476,square.png,Mutter,,,Bekannter
RP_Personenaufg,1,19,right,female,27,,,,RP,comp,,,,,,RPproc,1,313,circle.png,Bekannter,,,Bekannter
RP_Personenaufg,1,19,right,female,27,,,,RP,comp,,,,,,RPproc,1,284,triangle.png,Ich,,,Ich
RP_Personenaufg,1,19,right,female,27,,,,RP,comp,,,,,,RPproc,1,401,square.png,Mutter,,,Mutter
RP_Personenaufg,1,19,right,female,27,,,,RP,incomp,,,,,,RPproc,1,401,triangle.png,Ich,,,Mutter
RP_Personenaufg,1,19,right,female,27,,,,RP,incomp,,,,,,RPproc,1,361,circle.png,Bekannter,,,Mutter
RP_Personenaufg,1,19,right,female,27,,,,RP,comp,,,,,,RPproc,0,323,circle.png,Bekannter,,,Bekannter
RP_Personenaufg,1,19,right,female,27,,,,RP,incomp,,,,,,RPproc,1,399,square.png,Mutter,,,Ich
RP_Personenaufg,1,19,right,female,27,,,,RP,comp,,,,,,RPproc,1,215,triangle.png,Ich,,,Ich
RP_Personenaufg,1,19,right,female,27,,,,RP,incomp,,,,,,RPproc,0,359,triangle.png,Ich,,,Bekannter
RP_Personenaufg,1,19,right,female,27,,,,RP,incomp,,,,,,RPproc,1,426,circle.png,Bekannter,,,Mutter
RP_Personenaufg,1,19,right,female,27,,,,RP,incomp,,,,,,RPproc,1,401,square.png,Mutter,,,Bekannter
RP_Personenaufg,1,19,right,female,27,,,,RP,incomp,,,,,,RPproc,1,425,square.png,Mutter,,,Ich
RP_Personenaufg,1,19,right,female,27,,,,RP,incomp,,,,,,RPproc,1,304,triangle.png,Ich,,,Mutter
RP_Personenaufg,1,19,right,female,27,,,,RP,comp,,,,,,RPproc,1,356,circle.png,Bekannter,,,Bekannter
RP_Personenaufg,1,19,right,female,27,,,,RP,comp,,,,,,RPproc,1,222,triangle.png,Ich,,,Ich
RP_Personenaufg,1,19,right,female,27,,,,RP,comp,,,,,,RPproc,1,238,circle.png,Bekannter,,,Bekannter
RP_Personenaufg,1,19,right,female,27,,,,RP,incomp,,,,,,RPproc,0,678,circle.png,Bekannter,,,Ich
RP_Personenaufg,1,19,right,female,27,,,,RP,comp,,,,,,RPproc,1,401,square.png,Mutter,,,Mutter
RP_Personenaufg,1,19,right,female,27,,,,RP,comp,,,,,,RPproc,1,273,triangle.png,Ich,,,Ich
RP_Personenaufg,1,19,right,female,27,,,,RP,comp,,,,,,RPproc,1,471,square.png,Mutter,,,Mutter
RP_Personenaufg,1,19,right,female,27,,,,RP,incomp,,,,,,RPproc,1,468,square.png,Mutter,,,Ich
RP_Personenaufg,1,19,right,female,27,,,,RP,incomp,,,,,,RPproc,1,400,triangle.png,Ich,,,Mutter
RP_Personenaufg,1,19,right,female,27,,,,RP,comp,,,,,,RPproc,1,376,square.png,Mutter,,,Mutter
RP_Personenaufg,1,19,right,female,27,,,,RP,comp,,,,,,RPproc,1,305,square.png,Mutter,,,Mutter
RP_Personenaufg,1,19,right,female,27,,,,RP,incomp,,,,,,RPproc,1,293,circle.png,Bekannter,,,Mutter
RP_Personenaufg,1,19,right,female,27,,,,RP,comp,,,,,,RPproc,1,219,triangle.png,Ich,,,Ich
RP_Personenaufg,1,19,right,female,27,,,,RP,comp,,,,,,RPproc,1,299,circle.png,Bekannter,,,Bekannter
RP_Personenaufg,1,19,right,female,27,,,,RP,incomp,,,,,,RPproc,1,439,triangle.png,Ich,,,Bekannter
RP_Personenaufg,1,19,right,female,27,,,,RP,comp,,,,,,RPproc,1,237,circle.png,Bekannter,,,Bekannter
RP_Personenaufg,1,19,right,female,27,,,,RP,comp,,,,,,RPproc,1,301,triangle.png,Ich,,,Ich
RP_Personenaufg,1,19,right,female,27,,,,RP,incomp,,,,,,RPproc,1,425,square.png,Mutter,,,Bekannter
RP_Personenaufg,1,19,right,female,27,,,,RP,incomp,,,,,,RPproc,1,408,circle.png,Bekannter,,,Ich
RP_Personenaufg,1,19,right,female,28,,,,MT,bn,s,triangle.png,Bekannter,0,515,MTproc,,,,,,,
RP_Personenaufg,1,19,right,female,28,,,,MT,bn,s,square.png,Bekannter,0,423,MTproc,,,,,,,
RP_Personenaufg,1,19,right,female,28,,,,MT,mn,s,circle.png,Mutter,0,424,MTproc,,,,,,,
RP_Personenaufg,1,19,right,female,28,,,,MT,bm,l,circle.png,Bekannter,1,426,MTproc,,,,,,,
RP_Personenaufg,1,19,right,female,28,,,,MT,mm,l,square.png,Mutter,0,0,MTproc,,,,,,,
RP_Personenaufg,1,19,right,female,28,,,,MT,in,s,square.png,Ich,1,491,MTproc,,,,,,,
RP_Personenaufg,1,19,right,female,28,,,,MT,bm,l,circle.png,Bekannter,0,537,MTproc,,,,,,,
RP_Personenaufg,1,19,right,female,28,,,,MT,mn,s,triangle.png,Mutter,1,613,MTproc,,,,,,,
RP_Personenaufg,1,19,right,female,28,,,,MT,im,l,triangle.png,Ich,1,365,MTproc,,,,,,,
RP_Personenaufg,1,19,right,female,28,,,,MT,in,s,circle.png,Ich,0,449,MTproc,,,,,,,
RP_Personenaufg,1,19,right,female,28,,,,MT,mm,l,square.png,Mutter,1,440,MTproc,,,,,,,
RP_Personenaufg,1,19,right,female,28,,,,MT,im,l,triangle.png,Ich,1,361,MTproc,,,,,,,
RP_Personenaufg,1,19,right,female,28,,,,MT,mm,l,square.png,Mutter,0,349,MTproc,,,,,,,
RP_Personenaufg,1,19,right,female,28,,,,MT,mn,s,triangle.png,Mutter,1,569,MTproc,,,,,,,
RP_Personenaufg,1,19,right,female,28,,,,MT,bm,l,circle.png,Bekannter,1,316,MTproc,,,,,,,
RP_Personenaufg,1,19,right,female,28,,,,MT,mm,l,square.png,Mutter,0,506,MTproc,,,,,,,
RP_Personenaufg,1,19,right,female,28,,,,MT,im,l,triangle.png,Ich,1,303,MTproc,,,,,,,
RP_Personenaufg,1,19,right,female,28,,,,MT,im,l,triangle.png,Ich,1,334,MTproc,,,,,,,
RP_Personenaufg,1,19,right,female,28,,,,MT,mn,s,circle.png,Mutter,0,298,MTproc,,,,,,,
RP_Personenaufg,1,19,right,female,28,,,,MT,bn,s,square.png,Bekannter,0,361,MTproc,,,,,,,
RP_Personenaufg,1,19,right,female,28,,,,MT,in,s,circle.png,Ich,0,301,MTproc,,,,,,,
RP_Personenaufg,1,19,right,female,28,,,,MT,bm,l,circle.png,Bekannter,0,484,MTproc,,,,,,,
RP_Personenaufg,1,19,right,female,28,,,,MT,in,s,square.png,Ich,1,410,MTproc,,,,,,,
RP_Personenaufg,1,19,right,female,28,,,,MT,bn,s,triangle.png,Bekannter,1,468,MTproc,,,,,,,
RP_Personenaufg,1,19,right,female,28,,,,MT,bm,l,circle.png,Bekannter,0,419,MTproc,,,,,,,
RP_Personenaufg,1,19,right,female,28,,,,MT,im,l,triangle.png,Ich,1,293,MTproc,,,,,,,
RP_Personenaufg,1,19,right,female,28,,,,MT,bn,s,square.png,Bekannter,0,284,MTproc,,,,,,,
RP_Personenaufg,1,19,right,female,28,,,,MT,mm,l,square.png,Mutter,1,347,MTproc,,,,,,,
RP_Personenaufg,1,19,right,female,28,,,,MT,im,l,triangle.png,Ich,1,464,MTproc,,,,,,,
RP_Personenaufg,1,19,right,female,28,,,,MT,in,s,square.png,Ich,0,576,MTproc,,,,,,,
RP_Personenaufg,1,19,right,female,28,,,,MT,mm,l,square.png,Mutter,1,322,MTproc,,,,,,,
RP_Personenaufg,1,19,right,female,28,,,,MT,mn,s,triangle.png,Mutter,0,368,MTproc,,,,,,,
RP_Personenaufg,1,19,right,female,28,,,,MT,bn,s,triangle.png,Bekannter,0,316,MTproc,,,,,,,
RP_Personenaufg,1,19,right,female,28,,,,MT,mn,s,circle.png,Mutter,0,338,MTproc,,,,,,,
RP_Personenaufg,1,19,right,female,28,,,,MT,in,s,circle.png,Ich,0,0,MTproc,,,,,,,
RP_Personenaufg,1,19,right,female,28,,,,MT,bm,l,circle.png,Bekannter,1,446,MTproc,,,,,,,
RP_Personenaufg,1,19,right,female,28,,,,MT,bn,s,triangle.png,Bekannter,1,662,MTproc,,,,,,,
RP_Personenaufg,1,19,right,female,28,,,,MT,mn,s,triangle.png,Mutter,0,349,MTproc,,,,,,,
RP_Personenaufg,1,19,right,female,28,,,,MT,bm,l,circle.png,Bekannter,1,497,MTproc,,,,,,,
RP_Personenaufg,1,19,right,female,28,,,,MT,mn,s,circle.png,Mutter,1,367,MTproc,,,,,,,
RP_Personenaufg,1,19,right,female,28,,,,MT,mm,l,square.png,Mutter,1,346,MTproc,,,,,,,
RP_Personenaufg,1,19,right,female,28,,,,MT,bm,l,circle.png,Bekannter,0,430,MTproc,,,,,,,
RP_Personenaufg,1,19,right,female,28,,,,MT,bn,s,square.png,Bekannter,1,455,MTproc,,,,,,,
RP_Personenaufg,1,19,right,female,28,,,,MT,mm,l,square.png,Mutter,1,311,MTproc,,,,,,,
RP_Personenaufg,1,19,right,female,28,,,,MT,in,s,circle.png,Ich,1,397,MTproc,,,,,,,
RP_Personenaufg,1,19,right,female,28,,,,MT,im,l,triangle.png,Ich,1,343,MTproc,,,,,,,
RP_Personenaufg,1,19,right,female,28,,,,MT,in,s,square.png,Ich,0,340,MTproc,,,,,,,
RP_Personenaufg,1,19,right,female,28,,,,MT,im,l,triangle.png,Ich,1,432,MTproc,,,,,,,
RP_Personenaufg,1,19,right,female,29,,,,RP,comp,,,,,,RPproc,1,354,circle.png,Bekannter,,,Bekannter
RP_Personenaufg,1,19,right,female,29,,,,RP,comp,,,,,,RPproc,0,315,triangle.png,Ich,,,Ich
RP_Personenaufg,1,19,right,female,29,,,,RP,incomp,,,,,,RPproc,1,464,circle.png,Bekannter,,,Mutter
RP_Personenaufg,1,19,right,female,29,,,,RP,comp,,,,,,RPproc,1,316,square.png,Mutter,,,Mutter
RP_Personenaufg,1,19,right,female,29,,,,RP,incomp,,,,,,RPproc,1,432,circle.png,Bekannter,,,Ich
RP_Personenaufg,1,19,right,female,29,,,,RP,incomp,,,,,,RPproc,1,358,triangle.png,Ich,,,Mutter
RP_Personenaufg,1,19,right,female,29,,,,RP,comp,,,,,,RPproc,1,288,triangle.png,Ich,,,Ich
RP_Personenaufg,1,19,right,female,29,,,,RP,comp,,,,,,RPproc,1,277,square.png,Mutter,,,Mutter
RP_Personenaufg,1,19,right,female,29,,,,RP,incomp,,,,,,RPproc,1,402,triangle.png,Ich,,,Bekannter
RP_Personenaufg,1,19,right,female,29,,,,RP,incomp,,,,,,RPproc,1,626,square.png,Mutter,,,Ich
RP_Personenaufg,1,19,right,female,29,,,,RP,incomp,,,,,,RPproc,1,424,square.png,Mutter,,,Bekannter
RP_Personenaufg,1,19,right,female,29,,,,RP,comp,,,,,,RPproc,1,263,circle.png,Bekannter,,,Bekannter
RP_Personenaufg,1,19,right,female,29,,,,RP,incomp,,,,,,RPproc,0,381,circle.png,Bekannter,,,Ich
RP_Personenaufg,1,19,right,female,29,,,,RP,incomp,,,,,,RPproc,1,558,circle.png,Bekannter,,,Mutter
RP_Personenaufg,1,19,right,female,29,,,,RP,incomp,,,,,,RPproc,0,479,square.png,Mutter,,,Ich
RP_Personenaufg,1,19,right,female,29,,,,RP,incomp,,,,,,RPproc,1,476,triangle.png,Ich,,,Bekannter
RP_Personenaufg,1,19,right,female,29,,,,RP,incomp,,,,,,RPproc,1,361,triangle.png,Ich,,,Mutter
RP_Personenaufg,1,19,right,female,29,,,,RP,comp,,,,,,RPproc,1,354,circle.png,Bekannter,,,Bekannter
RP_Personenaufg,1,19,right,female,29,,,,RP,comp,,,,,,RPproc,1,260,triangle.png,Ich,,,Ich
RP_Personenaufg,1,19,right,female,29,,,,RP,comp,,,,,,RPproc,1,282,square.png,Mutter,,,Mutter
RP_Personenaufg,1,19,right,female,29,,,,RP,comp,,,,,,RPproc,1,295,circle.png,Bekannter,,,Bekannter
RP_Personenaufg,1,19,right,female,29,,,,RP,incomp,,,,,,RPproc,0,484,square.png,Mutter,,,Bekannter
RP_Personenaufg,1,19,right,female,29,,,,RP,comp,,,,,,RPproc,1,217,square.png,Mutter,,,Mutter
RP_Personenaufg,1,19,right,female,29,,,,RP,comp,,,,,,RPproc,0,241,triangle.png,Ich,,,Ich
RP_Personenaufg,1,19,right,female,29,,,,RP,incomp,,,,,,RPproc,1,449,circle.png,Bekannter,,,Mutter
RP_Personenaufg,1,19,right,female,29,,,,RP,incomp,,,,,,RPproc,1,319,square.png,Mutter,,,Ich
RP_Personenaufg,1,19,right,female,29,,,,RP,incomp,,,,,,RPproc,1,242,triangle.png,Ich,,,Mutter
RP_Personenaufg,1,19,right,female,29,,,,RP,incomp,,,,,,RPproc,1,290,triangle.png,Ich,,,Bekannter
RP_Personenaufg,1,19,right,female,29,,,,RP,comp,,,,,,RPproc,1,207,triangle.png,Ich,,,Ich
RP_Personenaufg,1,19,right,female,29,,,,RP,comp,,,,,,RPproc,1,248,triangle.png,Ich,,,Ich
RP_Personenaufg,1,19,right,female,29,,,,RP,incomp,,,,,,RPproc,1,286,square.png,Mutter,,,Bekannter
RP_Personenaufg,1,19,right,female,29,,,,RP,comp,,,,,,RPproc,1,251,square.png,Mutter,,,Mutter
RP_Personenaufg,1,19,right,female,29,,,,RP,comp,,,,,,RPproc,1,234,circle.png,Bekannter,,,Bekannter
RP_Personenaufg,1,19,right,female,29,,,,RP,incomp,,,,,,RPproc,0,433,circle.png,Bekannter,,,Ich
RP_Personenaufg,1,19,right,female,29,,,,RP,comp,,,,,,RPproc,1,273,circle.png,Bekannter,,,Bekannter
RP_Personenaufg,1,19,right,female,29,,,,RP,comp,,,,,,RPproc,1,326,square.png,Mutter,,,Mutter
RP_Personenaufg,1,19,right,female,29,,,,RP,comp,,,,,,RPproc,1,329,circle.png,Bekannter,,,Bekannter
RP_Personenaufg,1,19,right,female,29,,,,RP,incomp,,,,,,RPproc,0,340,circle.png,Bekannter,,,Ich
RP_Personenaufg,1,19,right,female,29,,,,RP,incomp,,,,,,RPproc,1,264,circle.png,Bekannter,,,Mutter
RP_Personenaufg,1,19,right,female,29,,,,RP,comp,,,,,,RPproc,0,638,triangle.png,Ich,,,Ich
RP_Personenaufg,1,19,right,female,29,,,,RP,incomp,,,,,,RPproc,1,452,square.png,Mutter,,,Bekannter
RP_Personenaufg,1,19,right,female,29,,,,RP,comp,,,,,,RPproc,1,249,square.png,Mutter,,,Mutter
RP_Personenaufg,1,19,right,female,29,,,,RP,incomp,,,,,,RPproc,1,320,triangle.png,Ich,,,Mutter
RP_Personenaufg,1,19,right,female,29,,,,RP,comp,,,,,,RPproc,1,251,circle.png,Bekannter,,,Bekannter
RP_Personenaufg,1,19,right,female,29,,,,RP,incomp,,,,,,RPproc,1,386,triangle.png,Ich,,,Bekannter
RP_Personenaufg,1,19,right,female,29,,,,RP,incomp,,,,,,RPproc,1,370,square.png,Mutter,,,Ich
RP_Personenaufg,1,19,right,female,29,,,,RP,comp,,,,,,RPproc,1,212,triangle.png,Ich,,,Ich
RP_Personenaufg,1,19,right,female,29,,,,RP,comp,,,,,,RPproc,1,268,square.png,Mutter,,,Mutter
RP_Personenaufg,1,19,right,female,30,,,,MT,bm,l,circle.png,Bekannter,0,705,MTproc,,,,,,,
RP_Personenaufg,1,19,right,female,30,,,,MT,im,l,triangle.png,Ich,1,541,MTproc,,,,,,,
RP_Personenaufg,1,19,right,female,30,,,,MT,in,s,square.png,Ich,1,425,MTproc,,,,,,,
RP_Personenaufg,1,19,right,female,30,,,,MT,mn,s,triangle.png,Mutter,0,490,MTproc,,,,,,,
RP_Personenaufg,1,19,right,female,30,,,,MT,bn,s,square.png,Bekannter,1,552,MTproc,,,,,,,
RP_Personenaufg,1,19,right,female,30,,,,MT,bm,l,circle.png,Bekannter,1,467,MTproc,,,,,,,
RP_Personenaufg,1,19,right,female,30,,,,MT,mm,l,square.png,Mutter,1,282,MTproc,,,,,,,
RP_Personenaufg,1,19,right,female,30,,,,MT,mn,s,circle.png,Mutter,1,530,MTproc,,,,,,,
RP_Personenaufg,1,19,right,female,30,,,,MT,mm,l,square.png,Mutter,1,502,MTproc,,,,,,,
RP_Personenaufg,1,19,right,female,30,,,,MT,im,l,triangle.png,Ich,1,468,MTproc,,,,,,,
RP_Personenaufg,1,19,right,female,30,,,,MT,bn,s,triangle.png,Bekannter,1,475,MTproc,,,,,,,
RP_Personenaufg,1,19,right,female,30,,,,MT,in,s,circle.png,Ich,0,306,MTproc,,,,,,,
RP_Personenaufg,1,19,right,female,30,,,,MT,mn,s,circle.png,Mutter,0,376,MTproc,,,,,,,
RP_Personenaufg,1,19,right,female,30,,,,MT,bn,s,triangle.png,Bekannter,1,484,MTproc,,,,,,,
RP_Personenaufg,1,19,right,female,30,,,,MT,im,l,triangle.png,Ich,1,450,MTproc,,,,,,,
RP_Personenaufg,1,19,right,female,30,,,,MT,mm,l,square.png,Mutter,1,362,MTproc,,,,,,,
RP_Personenaufg,1,19,right,female,30,,,,MT,mn,s,triangle.png,Mutter,1,412,MTproc,,,,,,,
RP_Personenaufg,1,19,right,female,30,,,,MT,im,l,triangle.png,Ich,1,510,MTproc,,,,,,,
RP_Personenaufg,1,19,right,female,30,,,,MT,in,s,circle.png,Ich,0,420,MTproc,,,,,,,
RP_Personenaufg,1,19,right,female,30,,,,MT,bn,s,square.png,Bekannter,1,541,MTproc,,,,,,,
RP_Personenaufg,1,19,right,female,30,,,,MT,bm,l,circle.png,Bekannter,1,345,MTproc,,,,,,,
RP_Personenaufg,1,19,right,female,30,,,,MT,in,s,square.png,Ich,0,510,MTproc,,,,,,,
RP_Personenaufg,1,19,right,female,30,,,,MT,bm,l,circle.png,Bekannter,0,515,MTproc,,,,,,,
RP_Personenaufg,1,19,right,female,30,,,,MT,mm,l,square.png,Mutter,1,464,MTproc,,,,,,,
RP_Personenaufg,1,19,right,female,30,,,,MT,mn,s,triangle.png,Mutter,1,496,MTproc,,,,,,,
RP_Personenaufg,1,19,right,female,30,,,,MT,im,l,triangle.png,Ich,1,389,MTproc,,,,,,,
RP_Personenaufg,1,19,right,female,30,,,,MT,mm,l,square.png,Mutter,1,432,MTproc,,,,,,,
RP_Personenaufg,1,19,right,female,30,,,,MT,bm,l,circle.png,Bekannter,1,336,MTproc,,,,,,,
RP_Personenaufg,1,19,right,female,30,,,,MT,in,s,square.png,Ich,1,454,MTproc,,,,,,,
RP_Personenaufg,1,19,right,female,30,,,,MT,mm,l,square.png,Mutter,1,453,MTproc,,,,,,,
RP_Personenaufg,1,19,right,female,30,,,,MT,bn,s,square.png,Bekannter,1,437,MTproc,,,,,,,
RP_Personenaufg,1,19,right,female,30,,,,MT,in,s,circle.png,Ich,1,717,MTproc,,,,,,,
RP_Personenaufg,1,19,right,female,30,,,,MT,bm,l,circle.png,Bekannter,1,441,MTproc,,,,,,,
RP_Personenaufg,1,19,right,female,30,,,,MT,im,l,triangle.png,Ich,1,457,MTproc,,,,,,,
RP_Personenaufg,1,19,right,female,30,,,,MT,bn,s,triangle.png,Bekannter,1,392,MTproc,,,,,,,
RP_Personenaufg,1,19,right,female,30,,,,MT,mn,s,circle.png,Mutter,1,459,MTproc,,,,,,,
RP_Personenaufg,1,19,right,female,30,,,,MT,mm,l,square.png,Mutter,1,314,MTproc,,,,,,,
RP_Personenaufg,1,19,right,female,30,,,,MT,bm,l,circle.png,Bekannter,1,400,MTproc,,,,,,,
RP_Personenaufg,1,19,right,female,30,,,,MT,bm,l,circle.png,Bekannter,0,386,MTproc,,,,,,,
RP_Personenaufg,1,19,right,female,30,,,,MT,mn,s,circle.png,Mutter,1,541,MTproc,,,,,,,
RP_Personenaufg,1,19,right,female,30,,,,MT,mn,s,triangle.png,Mutter,1,561,MTproc,,,,,,,
RP_Personenaufg,1,19,right,female,30,,,,MT,bn,s,triangle.png,Bekannter,1,460,MTproc,,,,,,,
RP_Personenaufg,1,19,right,female,30,,,,MT,in,s,circle.png,Ich,1,596,MTproc,,,,,,,
RP_Personenaufg,1,19,right,female,30,,,,MT,im,l,triangle.png,Ich,1,485,MTproc,,,,,,,
RP_Personenaufg,1,19,right,female,30,,,,MT,mm,l,square.png,Mutter,1,404,MTproc,,,,,,,
RP_Personenaufg,1,19,right,female,30,,,,MT,bn,s,square.png,Bekannter,1,430,MTproc,,,,,,,
RP_Personenaufg,1,19,right,female,30,,,,MT,in,s,square.png,Ich,0,558,MTproc,,,,,,,
RP_Personenaufg,1,19,right,female,30,,,,MT,im,l,triangle.png,Ich,1,393,MTproc,,,,,,,
RP_Personenaufg,1,19,right,female,31,,,,quest,,,,,,,,,,,,1,6505,
RP_Personenaufg,1,19,right,female,32,,,,quest,,,,,,,,,,,,1,9630,
RP_Personenaufg,1,19,right,female,33,,,,quest,,,,,,,,,,,,1,2676,
RP_Personenaufg,1,19,right,female,34,,,,quest,,,,,,,,,,,,1,2632,
RP_Personenaufg,1,19,right,female,35,,,,quest,,,,,,,,,,,,1,5783,
RP_Personenaufg,1,19,right,female,36,,,,quest,,,,,,,,,,,,1,3764,
RP_Personenaufg,1,19,right,female,37,,,,quest,,,,,,,,,,,,1,8270,
RP_Personenaufg,1,19,right,female,38,,,,quest,,,,,,,,,,,,1,2162,
RP_Personenaufg,1,19,right,female,39,,,,quest,,,,,,,,,,,,1,4750,
RP_Personenaufg,1,19,right,female,40,,,,quest,,,,,,,,,,,,1,2348,
RP_Personenaufg,10,19,right,female,1,in,s,,Mprac,,,,,,,,,,,,,,
RP_Personenaufg,10,19,right,female,2,bn,s,,Mprac,,,,,,,,,,,,,,
RP_Personenaufg,10,19,right,female,3,im,l,,Mprac,,,,,,,,,,,,,,
RP_Personenaufg,10,19,right,female,4,mn,s,,Mprac,,,,,,,,,,,,,,
RP_Personenaufg,10,19,right,female,5,bn,s,,Mprac,,,,,,,,,,,,,,
RP_Personenaufg,10,19,right,female,6,mm,l,,Mprac,,,,,,,,,,,,,,
RP_Personenaufg,10,19,right,female,7,in,s,,Mprac,,,,,,,,,,,,,,
RP_Personenaufg,10,19,right,female,8,bm,l,,Mprac,,,,,,,,,,,,,,
RP_Personenaufg,10,19,right,female,9,bm,l,,Mprac,,,,,,,,,,,,,,
RP_Personenaufg,10,19,right,female,10,mm,l,,Mprac,,,,,,,,,,,,,,
RP_Personenaufg,10,19,right,female,11,im,l,,Mprac,,,,,,,,,,,,,,
RP_Personenaufg,10,19,right,female,12,mn,s,,Mprac,,,,,,,,,,,,,,
RP_Personenaufg,10,19,right,female,13,mm,l,,Mprac,,,,,,,,,,,,,,
RP_Personenaufg,10,19,right,female,14,bn,s,,Mprac,,,,,,,,,,,,,,
RP_Personenaufg,10,19,right,female,15,mn,s,,Mprac,,,,,,,,,,,,,,
RP_Personenaufg,10,19,right,female,16,mn,s,,Mprac,,,,,,,,,,,,,,
RP_Personenaufg,10,19,right,female,17,bn,s,,Mprac,,,,,,,,,,,,,,
RP_Personenaufg,10,19,right,female,18,in,s,,Mprac,,,,,,,,,,,,,,
RP_Personenaufg,10,19,right,female,19,im,l,,Mprac,,,,,,,,,,,,,,
RP_Personenaufg,10,19,right,female,20,bm,l,,Mprac,,,,,,,,,,,,,,
RP_Personenaufg,10,19,right,female,21,in,s,,Mprac,,,,,,,,,,,,,,
RP_Personenaufg,10,19,right,female,22,bm,l,,Mprac,,,,,,,,,,,,,,
RP_Personenaufg,10,19,right,female,23,mm,l,,Mprac,,,,,,,,,,,,,,
RP_Personenaufg,10,19,right,female,24,im,l,,Mprac,,,,,,,,,,,,,,
RP_Personenaufg,10,19,right,female,25,,,,RP,comp,,,,,,RPproc,1,878,square.png,Mutter,,,Mutter
RP_Personenaufg,10,19,right,female,25,,,,RP,comp,,,,,,RPproc,1,544,square.png,Mutter,,,Mutter
RP_Personenaufg,10,19,right,female,25,,,,RP,comp,,,,,,RPproc,1,785,triangle.png,Ich,,,Ich
RP_Personenaufg,10,19,right,female,25,,,,RP,incomp,,,,,,RPproc,1,1071,triangle.png,Ich,,,Mutter
RP_Personenaufg,10,19,right,female,25,,,,RP,comp,,,,,,RPproc,1,544,circle.png,Bekannter,,,Bekannter
RP_Personenaufg,10,19,right,female,25,,,,RP,comp,,,,,,RPproc,1,505,triangle.png,Ich,,,Ich
RP_Personenaufg,10,19,right,female,25,,,,RP,incomp,,,,,,RPproc,1,980,circle.png,Bekannter,,,Mutter
RP_Personenaufg,10,19,right,female,25,,,,RP,comp,,,,,,RPproc,1,546,circle.png,Bekannter,,,Bekannter
RP_Personenaufg,10,19,right,female,25,,,,RP,incomp,,,,,,RPproc,1,835,circle.png,Bekannter,,,Ich
RP_Personenaufg,10,19,right,female,25,,,,RP,incomp,,,,,,RPproc,1,679,square.png,Mutter,,,Ich
RP_Personenaufg,10,19,right,female,25,,,,RP,incomp,,,,,,RPproc,0,602,square.png,Mutter,,,Bekannter
RP_Personenaufg,10,19,right,female,25,,,,RP,incomp,,,,,,RPproc,1,737,triangle.png,Ich,,,Bekannter
RP_Personenaufg,10,19,right,female,25,,,,RP,comp,,,,,,RPproc,1,450,square.png,Mutter,,,Mutter
RP_Personenaufg,10,19,right,female,25,,,,RP,comp,,,,,,RPproc,1,407,circle.png,Bekannter,,,Bekannter
RP_Personenaufg,10,19,right,female,25,,,,RP,incomp,,,,,,RPproc,1,703,circle.png,Bekannter,,,Ich
RP_Personenaufg,10,19,right,female,25,,,,RP,comp,,,,,,RPproc,0,457,square.png,Mutter,,,Mutter
RP_Personenaufg,10,19,right,female,25,,,,RP,comp,,,,,,RPproc,1,463,circle.png,Bekannter,,,Bekannter
RP_Personenaufg,10,19,right,female,25,,,,RP,comp,,,,,,RPproc,0,476,triangle.png,Ich,,,Ich
RP_Personenaufg,10,19,right,female,25,,,,RP,incomp,,,,,,RPproc,1,657,triangle.png,Ich,,,Bekannter
RP_Personenaufg,10,19,right,female,25,,,,RP,incomp,,,,,,RPproc,1,741,square.png,Mutter,,,Bekannter
RP_Personenaufg,10,19,right,female,25,,,,RP,incomp,,,,,,RPproc,1,733,triangle.png,Ich,,,Mutter
RP_Personenaufg,10,19,right,female,25,,,,RP,incomp,,,,,,RPproc,1,525,circle.png,Bekannter,,,Mutter
RP_Personenaufg,10,19,right,female,25,,,,RP,comp,,,,,,RPproc,1,512,triangle.png,Ich,,,Ich
RP_Personenaufg,10,19,right,female,25,,,,RP,incomp,,,,,,RPproc,1,619,square.png,Mutter,,,Ich
RP_Personenaufg,10,19,right,female,25,,,,RP,comp,,,,,,RPproc,1,481,square.png,Mutter,,,Mutter
RP_Personenaufg,10,19,right,female,25,,,,RP,incomp,,,,,,RPproc,1,468,circle.png,Bekannter,,,Ich
RP_Personenaufg,10,19,right,female,25,,,,RP,comp,,,,,,RPproc,1,313,triangle.png,Ich,,,Ich
RP_Personenaufg,10,19,right,female,25,,,,RP,incomp,,,,,,RPproc,1,741,square.png,Mutter,,,Bekannter
RP_Personenaufg,10,19,right,female,25,,,,RP,comp,,,,,,RPproc,0,389,square.png,Mutter,,,Mutter
RP_Personenaufg,10,19,right,female,25,,,,RP,incomp,,,,,,RPproc,1,559,square.png,Mutter,,,Ich
RP_Personenaufg,10,19,right,female,25,,,,RP,incomp,,,,,,RPproc,1,551,circle.png,Bekannter,,,Mutter
RP_Personenaufg,10,19,right,female,25,,,,RP,incomp,,,,,,RPproc,1,664,triangle.png,Ich,,,Mutter
RP_Personenaufg,10,19,right,female,25,,,,RP,comp,,,,,,RPproc,1,364,triangle.png,Ich,,,Ich
RP_Personenaufg,10,19,right,female,25,,,,RP,comp,,,,,,RPproc,1,372,circle.png,Bekannter,,,Bekannter
RP_Personenaufg,10,19,right,female,25,,,,RP,incomp,,,,,,RPproc,1,429,triangle.png,Ich,,,Bekannter
RP_Personenaufg,10,19,right,female,25,,,,RP,comp,,,,,,RPproc,1,339,circle.png,Bekannter,,,Bekannter
RP_Personenaufg,10,19,right,female,25,,,,RP,incomp,,,,,,RPproc,1,718,square.png,Mutter,,,Ich
RP_Personenaufg,10,19,right,female,25,,,,RP,incomp,,,,,,RPproc,1,815,square.png,Mutter,,,Bekannter
RP_Personenaufg,10,19,right,female,25,,,,RP,comp,,,,,,RPproc,0,420,circle.png,Bekannter,,,Bekannter
RP_Personenaufg,10,19,right,female,25,,,,RP,comp,,,,,,RPproc,1,324,triangle.png,Ich,,,Ich
RP_Personenaufg,10,19,right,female,25,,,,RP,comp,,,,,,RPproc,0,343,square.png,Mutter,,,Mutter
RP_Personenaufg,10,19,right,female,25,,,,RP,incomp,,,,,,RPproc,1,443,triangle.png,Ich,,,Mutter
RP_Personenaufg,10,19,right,female,25,,,,RP,incomp,,,,,,RPproc,0,753,triangle.png,Ich,,,Bekannter
RP_Personenaufg,10,19,right,female,25,,,,RP,comp,,,,,,RPproc,1,274,triangle.png,Ich,,,Ich
RP_Personenaufg,10,19,right,female,25,,,,RP,incomp,,,,,,RPproc,1,680,circle.png,Bekannter,,,Ich
RP_Personenaufg,10,19,right,female,25,,,,RP,comp,,,,,,RPproc,0,443,square.png,Mutter,,,Mutter
RP_Personenaufg,10,19,right,female,25,,,,RP,incomp,,,,,,RPproc,1,554,circle.png,Bekannter,,,Mutter
RP_Personenaufg,10,19,right,female,25,,,,RP,comp,,,,,,RPproc,1,547,circle.png,Bekannter,,,Bekannter
RP_Personenaufg,10,19,right,female,26,,,,MT,in,s,square.png,Ich,0,763,MTproc,,,,,,,
RP_Personenaufg,10,19,right,female,26,,,,MT,mm,l,square.png,Mutter,0,892,MTproc,,,,,,,
RP_Personenaufg,10,19,right,female,26,,,,MT,bn,s,triangle.png,Bekannter,1,848,MTproc,,,,,,,
RP_Personenaufg,10,19,right,female,26,,,,MT,im,l,triangle.png,Ich,1,589,MTproc,,,,,,,
RP_Personenaufg,10,19,right,female,26,,,,MT,mn,s,circle.png,Mutter,1,847,MTproc,,,,,,,
RP_Personenaufg,10,19,right,female,26,,,,MT,mm,l,square.png,Mutter,1,669,MTproc,,,,,,,
RP_Personenaufg,10,19,right,female,26,,,,MT,bm,l,circle.png,Bekannter,0,1067,MTproc,,,,,,,
RP_Personenaufg,10,19,right,female,26,,,,MT,bm,l,circle.png,Bekannter,1,663,MTproc,,,,,,,
RP_Personenaufg,10,19,right,female,26,,,,MT,bn,s,square.png,Bekannter,1,1005,MTproc,,,,,,,
RP_Personenaufg,10,19,right,female,26,,,,MT,im,l,triangle.png,Ich,1,564,MTproc,,,,,,,
RP_Personenaufg,10,19,right,female,26,,,,MT,in,s,circle.png,Ich,1,615,MTproc,,,,,,,
RP_Personenaufg,10,19,right,female,26,,,,MT,mn,s,triangle.png,Mutter,1,1006,MTproc,,,,,,,
RP_Personenaufg,10,19,right,female,26,,,,MT,bm,l,circle.png,Bekannter,0,717,MTproc,,,,,,,
RP_Personenaufg,10,19,right,female,26,,,,MT,im,l,triangle.png,Ich,1,544,MTproc,,,,,,,
RP_Personenaufg,10,19,right,female,26,,,,MT,im,l,triangle.png,Ich,1,692,MTproc,,,,,,,
RP_Personenaufg,10,19,right,female,26,,,,MT,in,s,circle.png,Ich,0,481,MTproc,,,,,,,
RP_Personenaufg,10,19,right,female,26,,,,MT,mm,l,square.png,Mutter,1,623,MTproc,,,,,,,
RP_Personenaufg,10,19,right,female,26,,,,MT,mn,s,circle.png,Mutter,1,631,MTproc,,,,,,,
RP_Personenaufg,10,19,right,female,26,,,,MT,in,s,square.png,Ich,0,503,MTproc,,,,,,,
RP_Personenaufg,10,19,right,female,26,,,,MT,bn,s,square.png,Bekannter,1,1053,MTproc,,,,,,,
RP_Personenaufg,10,19,right,female,26,,,,MT,mm,l,square.png,Mutter,1,681,MTproc,,,,,,,
RP_Personenaufg,10,19,right,female,26,,,,MT,bn,s,triangle.png,Bekannter,1,590,MTproc,,,,,,,
RP_Personenaufg,10,19,right,female,26,,,,MT,bm,l,circle.png,Bekannter,1,560,MTproc,,,,,,,
RP_Personenaufg,10,19,right,female,26,,,,MT,mn,s,triangle.png,Mutter,1,763,MTproc,,,,,,,
RP_Personenaufg,10,19,right,female,26,,,,MT,mn,s,circle.png,Mutter,1,829,MTproc,,,,,,,
RP_Personenaufg,10,19,right,female,26,,,,MT,mn,s,triangle.png,Mutter,1,628,MTproc,,,,,,,
RP_Personenaufg,10,19,right,female,26,,,,MT,bn,s,triangle.png,Bekannter,1,780,MTproc,,,,,,,
RP_Personenaufg,10,19,right,female,26,,,,MT,bm,l,circle.png,Bekannter,1,685,MTproc,,,,,,,
RP_Personenaufg,10,19,right,female,26,,,,MT,mm,l,square.png,Mutter,1,705,MTproc,,,,,,,
RP_Personenaufg,10,19,right,female,26,,,,MT,bm,l,circle.png,Bekannter,0,533,MTproc,,,,,,,
RP_Personenaufg,10,19,right,female,26,,,,MT,im,l,triangle.png,Ich,1,585,MTproc,,,,,,,
RP_Personenaufg,10,19,right,female,26,,,,MT,bn,s,square.png,Bekannter,1,667,MTproc,,,,,,,
RP_Personenaufg,10,19,right,female,26,,,,MT,im,l,triangle.png,Ich,1,449,MTproc,,,,,,,
RP_Personenaufg,10,19,right,female,26,,,,MT,mm,l,square.png,Mutter,1,473,MTproc,,,,,,,
RP_Personenaufg,10,19,right,female,26,,,,MT,in,s,circle.png,Ich,1,495,MTproc,,,,,,,
RP_Personenaufg,10,19,right,female,26,,,,MT,in,s,square.png,Ich,0,389,MTproc,,,,,,,
RP_Personenaufg,10,19,right,female,26,,,,MT,mm,l,square.png,Mutter,1,496,MTproc,,,,,,,
RP_Personenaufg,10,19,right,female,26,,,,MT,im,l,triangle.png,Ich,0,677,MTproc,,,,,,,
RP_Personenaufg,10,19,right,female,26,,,,MT,bm,l,circle.png,Bekannter,1,539,MTproc,,,,,,,
RP_Personenaufg,10,19,right,female,26,,,,MT,in,s,circle.png,Ich,1,671,MTproc,,,,,,,
RP_Personenaufg,10,19,right,female,26,,,,MT,in,s,square.png,Ich,0,460,MTproc,,,,,,,
RP_Personenaufg,10,19,right,female,26,,,,MT,bn,s,square.png,Bekannter,0,500,MTproc,,,,,,,
RP_Personenaufg,10,19,right,female,26,,,,MT,bm,l,circle.png,Bekannter,1,489,MTproc,,,,,,,
RP_Personenaufg,10,19,right,female,26,,,,MT,mn,s,circle.png,Mutter,1,728,MTproc,,,,,,,
RP_Personenaufg,10,19,right,female,26,,,,MT,im,l,triangle.png,Ich,1,474,MTproc,,,,,,,
RP_Personenaufg,10,19,right,female,26,,,,MT,mm,l,square.png,Mutter,1,665,MTproc,,,,,,,
RP_Personenaufg,10,19,right,female,26,,,,MT,bn,s,triangle.png,Bekannter,1,583,MTproc,,,,,,,
RP_Personenaufg,10,19,right,female,26,,,,MT,mn,s,triangle.png,Mutter,0,392,MTproc,,,,,,,
RP_Personenaufg,10,19,right,female,27,,,,RP,comp,,,,,,RPproc,1,393,triangle.png,Ich,,,Ich
RP_Personenaufg,10,19,right,female,27,,,,RP,incomp,,,,,,RPproc,1,737,square.png,Mutter,,,Bekannter
RP_Personenaufg,10,19,right,female,27,,,,RP,comp,,,,,,RPproc,1,457,circle.png,Bekannter,,,Bekannter
RP_Personenaufg,10,19,right,female,27,,,,RP,incomp,,,,,,RPproc,1,607,triangle.png,Ich,,,Bekannter
RP_Personenaufg,10,19,right,female,27,,,,RP,incomp,,,,,,RPproc,1,541,circle.png,Bekannter,,,Ich
RP_Personenaufg,10,19,right,female,27,,,,RP,incomp,,,,,,RPproc,0,1063,circle.png,Bekannter,,,Mutter
RP_Personenaufg,10,19,right,female,27,,,,RP,comp,,,,,,RPproc,1,474,triangle.png,Ich,,,Ich
RP_Personenaufg,10,19,right,female,27,,,,RP,comp,,,,,,RPproc,0,470,square.png,Mutter,,,Mutter
RP_Personenaufg,10,19,right,female,27,,,,RP,comp,,,,,,RPproc,0,419,square.png,Mutter,,,Mutter
RP_Personenaufg,10,19,right,female,27,,,,RP,incomp,,,,,,RPproc,1,595,square.png,Mutter,,,Ich
RP_Personenaufg,10,19,right,female,27,,,,RP,incomp,,,,,,RPproc,1,730,triangle.png,Ich,,,Mutter
RP_Personenaufg,10,19,right,female,27,,,,RP,comp,,,,,,RPproc,1,387,circle.png,Bekannter,,,Bekannter
RP_Personenaufg,10,19,right,female,27,,,,RP,incomp,,,,,,RPproc,1,891,circle.png,Bekannter,,,Mutter
RP_Personenaufg,10,19,right,female,27,,,,RP,comp,,,,,,RPproc,1,477,circle.png,Bekannter,,,Bekannter
RP_Personenaufg,10,19,right,female,27,,,,RP,comp,,,,,,RPproc,1,489,triangle.png,Ich,,,Ich
RP_Personenaufg,10,19,right,female,27,,,,RP,incomp,,,,,,RPproc,1,589,triangle.png,Ich,,,Mutter
RP_Personenaufg,10,19,right,female,27,,,,RP,comp,,,,,,RPproc,0,484,square.png,Mutter,,,Mutter
RP_Personenaufg,10,19,right,female,27,,,,RP,incomp,,,,,,RPproc,0,1081,triangle.png,Ich,,,Bekannter
RP_Personenaufg,10,19,right,female,27,,,,RP,incomp,,,,,,RPproc,0,707,square.png,Mutter,,,Ich
RP_Personenaufg,10,19,right,female,27,,,,RP,incomp,,,,,,RPproc,0,798,circle.png,Bekannter,,,Ich
RP_Personenaufg,10,19,right,female,27,,,,RP,comp,,,,,,RPproc,1,373,triangle.png,Ich,,,Ich
RP_Personenaufg,10,19,right,female,27,,,,RP,incomp,,,,,,RPproc,0,574,square.png,Mutter,,,Bekannter
RP_Personenaufg,10,19,right,female,27,,,,RP,comp,,,,,,RPproc,1,591,circle.png,Bekannter,,,Bekannter
RP_Personenaufg,10,19,right,female,27,,,,RP,comp,,,,,,RPproc,0,358,square.png,Mutter,,,Mutter
RP_Personenaufg,10,19,right,female,27,,,,RP,comp,,,,,,RPproc,1,441,triangle.png,Ich,,,Ich
RP_Personenaufg,10,19,right,female,27,,,,RP,incomp,,,,,,RPproc,1,543,triangle.png,Ich,,,Mutter
RP_Personenaufg,10,19,right,female,27,,,,RP,incomp,,,,,,RPproc,1,385,square.png,Mutter,,,Ich
RP_Personenaufg,10,19,right,female,27,,,,RP,incomp,,,,,,RPproc,1,657,circle.png,Bekannter,,,Mutter
RP_Personenaufg,10,19,right,female,27,,,,RP,comp,,,,,,RPproc,1,589,square.png,Mutter,,,Mutter
RP_Personenaufg,10,19,right,female,27,,,,RP,incomp,,,,,,RPproc,1,613,circle.png,Bekannter,,,Ich
RP_Personenaufg,10,19,right,female,27,,,,RP,comp,,,,,,RPproc,1,482,triangle.png,Ich,,,Ich
RP_Personenaufg,10,19,right,female,27,,,,RP,comp,,,,,,RPproc,1,318,circle.png,Bekannter,,,Bekannter
RP_Personenaufg,10,19,right,female,27,,,,RP,comp,,,,,,RPproc,0,506,square.png,Mutter,,,Mutter
RP_Personenaufg,10,19,right,female,27,,,,RP,incomp,,,,,,RPproc,1,662,square.png,Mutter,,,Bekannter
RP_Personenaufg,10,19,right,female,27,,,,RP,incomp,,,,,,RPproc,1,474,triangle.png,Ich,,,Bekannter
RP_Personenaufg,10,19,right,female,27,,,,RP,comp,,,,,,RPproc,1,327,circle.png,Bekannter,,,Bekannter
RP_Personenaufg,10,19,right,female,27,,,,RP,comp,,,,,,RPproc,0,506,square.png,Mutter,,,Mutter
RP_Personenaufg,10,19,right,female,27,,,,RP,comp,,,,,,RPproc,1,382,square.png,Mutter,,,Mutter
RP_Personenaufg,10,19,right,female,27,,,,RP,incomp,,,,,,RPproc,1,774,square.png,Mutter,,,Bekannter
RP_Personenaufg,10,19,right,female,27,,,,RP,comp,,,,,,RPproc,0,397,circle.png,Bekannter,,,Bekannter
RP_Personenaufg,10,19,right,female,27,,,,RP,comp,,,,,,RPproc,1,278,circle.png,Bekannter,,,Bekannter
RP_Personenaufg,10,19,right,female,27,,,,RP,comp,,,,,,RPproc,1,363,triangle.png,Ich,,,Ich
RP_Personenaufg,10,19,right,female,27,,,,RP,incomp,,,,,,RPproc,1,660,circle.png,Bekannter,,,Ich
RP_Personenaufg,10,19,right,female,27,,,,RP,incomp,,,,,,RPproc,1,760,circle.png,Bekannter,,,Mutter
RP_Personenaufg,10,19,right,female,27,,,,RP,incomp,,,,,,RPproc,1,768,triangle.png,Ich,,,Mutter
RP_Personenaufg,10,19,right,female,27,,,,RP,incomp,,,,,,RPproc,0,543,square.png,Mutter,,,Ich
RP_Personenaufg,10,19,right,female,27,,,,RP,comp,,,,,,RPproc,1,521,triangle.png,Ich,,,Ich
RP_Personenaufg,10,19,right,female,27,,,,RP,incomp,,,,,,RPproc,1,612,triangle.png,Ich,,,Bekannter
RP_Personenaufg,10,19,right,female,28,,,,MT,im,l,triangle.png,Ich,1,766,MTproc,,,,,,,
RP_Personenaufg,10,19,right,female,28,,,,MT,bn,s,square.png,Bekannter,1,975,MTproc,,,,,,,
RP_Personenaufg,10,19,right,female,28,,,,MT,mm,l,square.png,Mutter,0,639,MTproc,,,,,,,
RP_Personenaufg,10,19,right,female,28,,,,MT,im,l,triangle.png,Ich,1,550,MTproc,,,,,,,
RP_Personenaufg,10,19,right,female,28,,,,MT,bm,l,circle.png,Bekannter,1,697,MTproc,,,,,,,
RP_Personenaufg,10,19,right,female,28,,,,MT,bn,s,triangle.png,Bekannter,1,933,MTproc,,,,,,,
RP_Personenaufg,10,19,right,female,28,,,,MT,in,s,circle.png,Ich,0,503,MTproc,,,,,,,
RP_Personenaufg,10,19,right,female,28,,,,MT,bm,l,circle.png,Bekannter,0,572,MTproc,,,,,,,
RP_Personenaufg,10,19,right,female,28,,,,MT,in,s,square.png,Ich,0,446,MTproc,,,,,,,
RP_Personenaufg,10,19,right,female,28,,,,MT,mn,s,circle.png,Mutter,1,702,MTproc,,,,,,,
RP_Personenaufg,10,19,right,female,28,,,,MT,mn,s,triangle.png,Mutter,1,698,MTproc,,,,,,,
RP_Personenaufg,10,19,right,female,28,,,,MT,mm,l,square.png,Mutter,1,774,MTproc,,,,,,,
RP_Personenaufg,10,19,right,female,28,,,,MT,mn,s,triangle.png,Mutter,1,519,MTproc,,,,,,,
RP_Personenaufg,10,19,right,female,28,,,,MT,mm,l,square.png,Mutter,1,556,MTproc,,,,,,,
RP_Personenaufg,10,19,right,female,28,,,,MT,bn,s,triangle.png,Bekannter,1,551,MTproc,,,,,,,
RP_Personenaufg,10,19,right,female,28,,,,MT,mn,s,circle.png,Mutter,0,618,MTproc,,,,,,,
RP_Personenaufg,10,19,right,female,28,,,,MT,bm,l,circle.png,Bekannter,1,610,MTproc,,,,,,,
RP_Personenaufg,10,19,right,female,28,,,,MT,mm,l,square.png,Mutter,0,530,MTproc,,,,,,,
RP_Personenaufg,10,19,right,female,28,,,,MT,bm,l,circle.png,Bekannter,1,839,MTproc,,,,,,,
RP_Personenaufg,10,19,right,female,28,,,,MT,im,l,triangle.png,Ich,1,717,MTproc,,,,,,,
RP_Personenaufg,10,19,right,female,28,,,,MT,in,s,circle.png,Ich,1,736,MTproc,,,,,,,
RP_Personenaufg,10,19,right,female,28,,,,MT,in,s,square.png,Ich,1,891,MTproc,,,,,,,
RP_Personenaufg,10,19,right,female,28,,,,MT,bn,s,square.png,Bekannter,1,799,MTproc,,,,,,,
RP_Personenaufg,10,19,right,female,28,,,,MT,im,l,triangle.png,Ich,1,503,MTproc,,,,,,,
RP_Personenaufg,10,19,right,female,28,,,,MT,bm,l,circle.png,Bekannter,1,652,MTproc,,,,,,,
RP_Personenaufg,10,19,right,female,28,,,,MT,mm,l,square.png,Mutter,1,555,MTproc,,,,,,,
RP_Personenaufg,10,19,right,female,28,,,,MT,bn,s,triangle.png,Bekannter,1,630,MTproc,,,,,,,
RP_Personenaufg,10,19,right,female,28,,,,MT,mn,s,triangle.png,Mutter,0,974,MTproc,,,,,,,
RP_Personenaufg,10,19,right,female,28,,,,MT,im,l,triangle.png,Ich,1,462,MTproc,,,,,,,
RP_Personenaufg,10,19,right,female,28,,,,MT,bm,l,circle.png,Bekannter,1,789,MTproc,,,,,,,
RP_Personenaufg,10,19,right,female,28,,,,MT,mn,s,circle.png,Mutter,1,638,MTproc,,,,,,,
RP_Personenaufg,10,19,right,female,28,,,,MT,in,s,square.png,Ich,0,573,MTproc,,,,,,,
RP_Personenaufg,10,19,right,female,28,,,,MT,bn,s,square.png,Bekannter,0,1047,MTproc,,,,,,,
RP_Personenaufg,10,19,right,female,28,,,,MT,in,s,circle.png,Ich,0,443,MTproc,,,,,,,
RP_Personenaufg,10,19,right,female,28,,,,MT,im,l,triangle.png,Ich,1,516,MTproc,,,,,,,
RP_Personenaufg,10,19,right,female,28,,,,MT,mm,l,square.png,Mutter,1,544,MTproc,,,,,,,
RP_Personenaufg,10,19,right,female,28,,,,MT,bn,s,triangle.png,Bekannter,1,564,MTproc,,,,,,,
RP_Personenaufg,10,19,right,female,28,,,,MT,in,s,circle.png,Ich,1,710,MTproc,,,,,,,
RP_Personenaufg,10,19,right,female,28,,,,MT,bm,l,circle.png,Bekannter,1,747,MTproc,,,,,,,
RP_Personenaufg,10,19,right,female,28,,,,MT,mn,s,circle.png,Mutter,1,749,MTproc,,,,,,,
RP_Personenaufg,10,19,right,female,28,,,,MT,mm,l,square.png,Mutter,1,584,MTproc,,,,,,,
RP_Personenaufg,10,19,right,female,28,,,,MT,mn,s,triangle.png,Mutter,1,657,MTproc,,,,,,,
RP_Personenaufg,10,19,right,female,28,,,,MT,im,l,triangle.png,Ich,1,512,MTproc,,,,,,,
RP_Personenaufg,10,19,right,female,28,,,,MT,in,s,square.png,Ich,1,621,MTproc,,,,,,,
RP_Personenaufg,10,19,right,female,28,,,,MT,im,l,triangle.png,Ich,1,501,MTproc,,,,,,,
RP_Personenaufg,10,19,right,female,28,,,,MT,bn,s,square.png,Bekannter,0,0,MTproc,,,,,,,
RP_Personenaufg,10,19,right,female,28,,,,MT,bm,l,circle.png,Bekannter,1,835,MTproc,,,,,,,
RP_Personenaufg,10,19,right,female,28,,,,MT,mm,l,square.png,Mutter,1,649,MTproc,,,,,,,
RP_Personenaufg,10,19,right,female,29,,,,RP,incomp,,,,,,RPproc,1,980,square.png,Mutter,,,Bekannter
RP_Personenaufg,10,19,right,female,29,,,,RP,comp,,,,,,RPproc,0,409,circle.png,Bekannter,,,Bekannter
RP_Personenaufg,10,19,right,female,29,,,,RP,comp,,,,,,RPproc,1,538,triangle.png,Ich,,,Ich
RP_Personenaufg,10,19,right,female,29,,,,RP,comp,,,,,,RPproc,1,364,square.png,Mutter,,,Mutter
RP_Personenaufg,10,19,right,female,29,,,,RP,incomp,,,,,,RPproc,1,541,triangle.png,Ich,,,Mutter
RP_Personenaufg,10,19,right,female,29,,,,RP,incomp,,,,,,RPproc,0,526,square.png,Mutter,,,Ich
RP_Personenaufg,10,19,right,female,29,,,,RP,incomp,,,,,,RPproc,1,578,circle.png,Bekannter,,,Mutter
RP_Personenaufg,10,19,right,female,29,,,,RP,comp,,,,,,RPproc,1,402,triangle.png,Ich,,,Ich
RP_Personenaufg,10,19,right,female,29,,,,RP,comp,,,,,,RPproc,1,818,circle.png,Bekannter,,,Bekannter
RP_Personenaufg,10,19,right,female,29,,,,RP,incomp,,,,,,RPproc,1,646,circle.png,Bekannter,,,Ich
RP_Personenaufg,10,19,right,female,29,,,,RP,comp,,,,,,RPproc,1,475,square.png,Mutter,,,Mutter
RP_Personenaufg,10,19,right,female,29,,,,RP,incomp,,,,,,RPproc,1,752,triangle.png,Ich,,,Bekannter
RP_Personenaufg,10,19,right,female,29,,,,RP,incomp,,,,,,RPproc,1,719,triangle.png,Ich,,,Mutter
RP_Personenaufg,10,19,right,female,29,,,,RP,comp,,,,,,RPproc,1,776,square.png,Mutter,,,Mutter
RP_Personenaufg,10,19,right,female,29,,,,RP,comp,,,,,,RPproc,0,566,triangle.png,Ich,,,Ich
RP_Personenaufg,10,19,right,female,29,,,,RP,comp,,,,,,RPproc,1,655,triangle.png,Ich,,,Ich
RP_Personenaufg,10,19,right,female,29,,,,RP,incomp,,,,,,RPproc,0,651,circle.png,Bekannter,,,Mutter
RP_Personenaufg,10,19,right,female,29,,,,RP,incomp,,,,,,RPproc,1,737,circle.png,Bekannter,,,Ich
RP_Personenaufg,10,19,right,female,29,,,,RP,comp,,,,,,RPproc,0,377,square.png,Mutter,,,Mutter
RP_Personenaufg,10,19,right,female,29,,,,RP,incomp,,,,,,RPproc,1,507,square.png,Mutter,,,Bekannter
RP_Personenaufg,10,19,right,female,29,,,,RP,comp,,,,,,RPproc,1,510,circle.png,Bekannter,,,Bekannter
RP_Personenaufg,10,19,right,female,29,,,,RP,incomp,,,,,,RPproc,1,553,triangle.png,Ich,,,Bekannter
RP_Personenaufg,10,19,right,female,29,,,,RP,comp,,,,,,RPproc,1,586,circle.png,Bekannter,,,Bekannter
RP_Personenaufg,10,19,right,female,29,,,,RP,incomp,,,,,,RPproc,1,610,square.png,Mutter,,,Ich
RP_Personenaufg,10,19,right,female,29,,,,RP,comp,,,,,,RPproc,1,400,circle.png,Bekannter,,,Bekannter
RP_Personenaufg,10,19,right,female,29,,,,RP,incomp,,,,,,RPproc,0,592,square.png,Mutter,,,Ich
RP_Personenaufg,10,19,right,female,29,,,,RP,incomp,,,,,,RPproc,1,696,circle.png,Bekannter,,,Mutter
RP_Personenaufg,10,19,right,female,29,,,,RP,comp,,,,,,RPproc,1,483,circle.png,Bekannter,,,Bekannter
RP_Personenaufg,10,19,right,female,29,,,,RP,incomp,,,,,,RPproc,1,510,triangle.png,Ich,,,Mutter
RP_Personenaufg,10,19,right,female,29,,,,RP,comp,,,,,,RPproc,1,481,triangle.png,Ich,,,Ich
RP_Personenaufg,10,19,right,female,29,,,,RP,comp,,,,,,RPproc,1,429,triangle.png,Ich,,,Ich
RP_Personenaufg,10,19,right,female,29,,,,RP,incomp,,,,,,RPproc,1,763,square.png,Mutter,,,Bekannter
RP_Personenaufg,10,19,right,female,29,,,,RP,incomp,,,,,,RPproc,0,682,circle.png,Bekannter,,,Ich
RP_Personenaufg,10,19,right,female,29,,,,RP,comp,,,,,,RPproc,1,646,square.png,Mutter,,,Mutter
RP_Personenaufg,10,19,right,female,29,,,,RP,comp,,,,,,RPproc,1,1011,square.png,Mutter,,,Mutter
RP_Personenaufg,10,19,right,female,29,,,,RP,incomp,,,,,,RPproc,1,591,triangle.png,Ich,,,Bekannter
RP_Personenaufg,10,19,right,female,29,,,,RP,incomp,,,,,,RPproc,1,838,circle.png,Bekannter,,,Mutter
RP_Personenaufg,10,19,right,female,29,,,,RP,comp,,,,,,RPproc,1,914,circle.png,Bekannter,,,Bekannter
RP_Personenaufg,10,19,right,female,29,,,,RP,incomp,,,,,,RPproc,1,635,triangle.png,Ich,,,Bekannter
RP_Personenaufg,10,19,right,female,29,,,,RP,comp,,,,,,RPproc,0,487,triangle.png,Ich,,,Ich
RP_Personenaufg,10,19,right,female,29,,,,RP,incomp,,,,,,RPproc,1,716,square.png,Mutter,,,Ich
RP_Personenaufg,10,19,right,female,29,,,,RP,comp,,,,,,RPproc,1,590,square.png,Mutter,,,Mutter
RP_Personenaufg,10,19,right,female,29,,,,RP,incomp,,,,,,RPproc,1,484,triangle.png,Ich,,,Mutter
RP_Personenaufg,10,19,right,female,29,,,,RP,comp,,,,,,RPproc,1,400,circle.png,Bekannter,,,Bekannter
RP_Personenaufg,10,19,right,female,29,,,,RP,comp,,,,,,RPproc,1,439,triangle.png,Ich,,,Ich
RP_Personenaufg,10,19,right,female,29,,,,RP,incomp,,,,,,RPproc,1,718,circle.png,Bekannter,,,Ich
RP_Personenaufg,10,19,right,female,29,,,,RP,incomp,,,,,,RPproc,0,495,square.png,Mutter,,,Bekannter
RP_Personenaufg,10,19,right,female,29,,,,RP,comp,,,,,,RPproc,1,532,square.png,Mutter,,,Mutter
RP_Personenaufg,10,19,right,female,30,,,,MT,bm,l,circle.png,Bekannter,1,847,MTproc,,,,,,,
RP_Personenaufg,10,19,right,female,30,,,,MT,bm,l,circle.png,Bekannter,1,645,MTproc,,,,,,,
RP_Personenaufg,10,19,right,female,30,,,,MT,bn,s,square.png,Bekannter,1,788,MTproc,,,,,,,
RP_Personenaufg,10,19,right,female,30,,,,MT,mn,s,circle.png,Mutter,1,996,MTproc,,,,,,,
RP_Personenaufg,10,19,right,female,30,,,,MT,bn,s,triangle.png,Bekannter,1,667,MTproc,,,,,,,
RP_Personenaufg,10,19,right,female,30,,,,MT,im,l,triangle.png,Ich,1,385,MTproc,,,,,,,
RP_Personenaufg,10,19,right,female,30,,,,MT,mn,s,triangle.png,Mutter,1,868,MTproc,,,,,,,
RP_Personenaufg,10,19,right,female,30,,,,MT,mm,l,square.png,Mutter,1,1024,MTproc,,,,,,,
RP_Personenaufg,10,19,right,female,30,,,,MT,in,s,circle.png,Ich,1,622,MTproc,,,,,,,
RP_Personenaufg,10,19,right,female,30,,,,MT,mm,l,square.png,Mutter,1,661,MTproc,,,,,,,
RP_Personenaufg,10,19,right,female,30,,,,MT,im,l,triangle.png,Ich,1,587,MTproc,,,,,,,
RP_Personenaufg,10,19,right,female,30,,,,MT,in,s,square.png,Ich,1,549,MTproc,,,,,,,
RP_Personenaufg,10,19,right,female,30,,,,MT,bm,l,circle.png,Bekannter,1,529,MTproc,,,,,,,
RP_Personenaufg,10,19,right,female,30,,,,MT,in,s,circle.png,Ich,0,413,MTproc,,,,,,,
RP_Personenaufg,10,19,right,female,30,,,,MT,bm,l,circle.png,Bekannter,1,687,MTproc,,,,,,,
RP_Personenaufg,10,19,right,female,30,,,,MT,mm,l,square.png,Mutter,1,460,MTproc,,,,,,,
RP_Personenaufg,10,19,right,female,30,,,,MT,mn,s,triangle.png,Mutter,1,620,MTproc,,,,,,,
RP_Personenaufg,10,19,right,female,30,,,,MT,in,s,square.png,Ich,0,348,MTproc,,,,,,,
RP_Personenaufg,10,19,right,female,30,,,,MT,bn,s,square.png,Bekannter,1,848,MTproc,,,,,,,
RP_Personenaufg,10,19,right,female,30,,,,MT,im,l,triangle.png,Ich,1,454,MTproc,,,,,,,
RP_Personenaufg,10,19,right,female,30,,,,MT,im,l,triangle.png,Ich,1,462,MTproc,,,,,,,
RP_Personenaufg,10,19,right,female,30,,,,MT,mn,s,circle.png,Mutter,1,774,MTproc,,,,,,,
RP_Personenaufg,10,19,right,female,30,,,,MT,bn,s,triangle.png,Bekannter,1,679,MTproc,,,,,,,
RP_Personenaufg,10,19,right,female,30,,,,MT,mm,l,square.png,Mutter,1,597,MTproc,,,,,,,
RP_Personenaufg,10,19,right,female,30,,,,MT,mn,s,triangle.png,Mutter,1,766,MTproc,,,,,,,
RP_Personenaufg,10,19,right,female,30,,,,MT,bn,s,triangle.png,Bekannter,1,734,MTproc,,,,,,,
RP_Personenaufg,10,19,right,female,30,,,,MT,in,s,circle.png,Ich,1,777,MTproc,,,,,,,
RP_Personenaufg,10,19,right,female,30,,,,MT,im,l,triangle.png,Ich,1,426,MTproc,,,,,,,
RP_Personenaufg,10,19,right,female,30,,,,MT,mm,l,square.png,Mutter,0,1171,MTproc,,,,,,,
RP_Personenaufg,10,19,right,female,30,,,,MT,im,l,triangle.png,Ich,1,611,MTproc,,,,,,,
RP_Personenaufg,10,19,right,female,30,,,,MT,bm,l,circle.png,Bekannter,1,572,MTproc,,,,,,,
RP_Personenaufg,10,19,right,female,30,,,,MT,in,s,square.png,Ich,1,718,MTproc,,,,,,,
RP_Personenaufg,10,19,right,female,30,,,,MT,bm,l,circle.png,Bekannter,1,577,MTproc,,,,,,,
RP_Personenaufg,10,19,right,female,30,,,,MT,bn,s,square.png,Bekannter,1,588,MTproc,,,,,,,
RP_Personenaufg,10,19,right,female,30,,,,MT,mm,l,square.png,Mutter,1,621,MTproc,,,,,,,
RP_Personenaufg,10,19,right,female,30,,,,MT,mn,s,circle.png,Mutter,1,565,MTproc,,,,,,,
RP_Personenaufg,10,19,right,female,30,,,,MT,bm,l,circle.png,Bekannter,1,703,MTproc,,,,,,,
RP_Personenaufg,10,19,right,female,30,,,,MT,im,l,triangle.png,Ich,1,420,MTproc,,,,,,,
RP_Personenaufg,10,19,right,female,30,,,,MT,mm,l,square.png,Mutter,1,829,MTproc,,,,,,,
RP_Personenaufg,10,19,right,female,30,,,,MT,mm,l,square.png,Mutter,1,508,MTproc,,,,,,,
RP_Personenaufg,10,19,right,female,30,,,,MT,mn,s,circle.png,Mutter,1,569,MTproc,,,,,,,
RP_Personenaufg,10,19,right,female,30,,,,MT,in,s,square.png,Ich,0,491,MTproc,,,,,,,
RP_Personenaufg,10,19,right,female,30,,,,MT,im,l,triangle.png,Ich,1,545,MTproc,,,,,,,
RP_Personenaufg,10,19,right,female,30,,,,MT,bn,s,square.png,Bekannter,0,628,MTproc,,,,,,,
RP_Personenaufg,10,19,right,female,30,,,,MT,in,s,circle.png,Ich,1,524,MTproc,,,,,,,
RP_Personenaufg,10,19,right,female,30,,,,MT,bn,s,triangle.png,Bekannter,0,657,MTproc,,,,,,,
RP_Personenaufg,10,19,right,female,30,,,,MT,mn,s,triangle.png,Mutter,1,720,MTproc,,,,,,,
RP_Personenaufg,10,19,right,female,30,,,,MT,bm,l,circle.png,Bekannter,0,1139,MTproc,,,,,,,
RP_Personenaufg,10,19,right,female,31,,,,quest,,,,,,,,,,,,1,5203,
RP_Personenaufg,10,19,right,female,32,,,,quest,,,,,,,,,,,,1,7603,
RP_Personenaufg,10,19,right,female,33,,,,quest,,,,,,,,,,,,1,2309,
RP_Personenaufg,10,19,right,female,34,,,,quest,,,,,,,,,,,,1,2963,
RP_Personenaufg,10,19,right,female,35,,,,quest,,,,,,,,,,,,1,2682,
RP_Personenaufg,10,19,right,female,36,,,,quest,,,,,,,,,,,,1,2038,
RP_Personenaufg,10,19,right,female,37,,,,quest,,,,,,,,,,,,1,4006,
RP_Personenaufg,10,19,right,female,38,,,,quest,,,,,,,,,,,,1,2294,
RP_Personenaufg,10,19,right,female,39,,,,quest,,,,,,,,,,,,1,2980,
RP_Personenaufg,10,19,right,female,40,,,,quest,,,,,,,,,,,,1,3642,
RP_Personenaufg,11,20,right,female,1,mm,l,circle.png,Mprac,,,,,,,,,,,,,,
RP_Personenaufg,11,20,right,female,2,bm,l,triangle.png,Mprac,,,,,,,,,,,,,,
RP_Personenaufg,11,20,right,female,3,im,l,square.png,Mprac,,,,,,,,,,,,,,
RP_Personenaufg,11,20,right,female,4,bn,s,square.png,Mprac,,,,,,,,,,,,,,
RP_Personenaufg,11,20,right,female,5,bm,l,triangle.png,Mprac,,,,,,,,,,,,,,
RP_Personenaufg,11,20,right,female,6,mn,s,square.png,Mprac,,,,,,,,,,,,,,
RP_Personenaufg,11,20,right,female,7,in,s,triangle.png,Mprac,,,,,,,,,,,,,,
RP_Personenaufg,11,20,right,female,8,in,s,circle.png,Mprac,,,,,,,,,,,,,,
RP_Personenaufg,11,20,right,female,9,mm,l,circle.png,Mprac,,,,,,,,,,,,,,
RP_Personenaufg,11,20,right,female,10,im,l,square.png,Mprac,,,,,,,,,,,,,,
RP_Personenaufg,11,20,right,female,11,mn,s,triangle.png,Mprac,,,,,,,,,,,,,,
RP_Personenaufg,11,20,right,female,12,bn,s,circle.png,Mprac,,,,,,,,,,,,,,
RP_Personenaufg,11,20,right,female,13,im,l,square.png,Mprac,,,,,,,,,,,,,,
RP_Personenaufg,11,20,right,female,14,im,l,square.png,Mprac,,,,,,,,,,,,,,
RP_Personenaufg,11,20,right,female,15,bn,s,circle.png,Mprac,,,,,,,,,,,,,,
RP_Personenaufg,11,20,right,female,16,mm,l,circle.png,Mprac,,,,,,,,,,,,,,
RP_Personenaufg,11,20,right,female,17,mn,s,triangle.png,Mprac,,,,,,,,,,,,,,
RP_Personenaufg,11,20,right,female,18,bm,l,triangle.png,Mprac,,,,,,,,,,,,,,
RP_Personenaufg,11,20,right,female,19,in,s,triangle.png,Mprac,,,,,,,,,,,,,,
RP_Personenaufg,11,20,right,female,20,bn,s,square.png,Mprac,,,,,,,,,,,,,,
RP_Personenaufg,11,20,right,female,21,mn,s,square.png,Mprac,,,,,,,,,,,,,,
RP_Personenaufg,11,20,right,female,22,mm,l,circle.png,Mprac,,,,,,,,,,,,,,
RP_Personenaufg,11,20,right,female,23,in,s,circle.png,Mprac,,,,,,,,,,,,,,
RP_Personenaufg,11,20,right,female,24,bm,l,triangle.png,Mprac,,,,,,,,,,,,,,
RP_Personenaufg,11,20,right,female,25,,,,RP,incomp,,,,,,RPproc,0,1785,circle.png,Mutter,,,Ich
RP_Personenaufg,11,20,right,female,25,,,,RP,comp,,,,,,RPproc,1,202,triangle.png,Bekannter,,,Bekannter
RP_Personenaufg,11,20,right,female,25,,,,RP,incomp,,,,,,RPproc,1,147,triangle.png,Bekannter,,,Ich
RP_Personenaufg,11,20,right,female,25,,,,RP,comp,,,,,,RPproc,0,206,circle.png,Mutter,,,Mutter
RP_Personenaufg,11,20,right,female,25,,,,RP,incomp,,,,,,RPproc,1,200,square.png,Ich,,,Mutter
RP_Personenaufg,11,20,right,female,25,,,,RP,comp,,,,,,RPproc,1,1296,square.png,Ich,,,Ich
RP_Personenaufg,11,20,right,female,25,,,,RP,comp,,,,,,RPproc,1,455,square.png,Ich,,,Ich
RP_Personenaufg,11,20,right,female,25,,,,RP,incomp,,,,,,RPproc,0,621,square.png,Ich,,,Bekannter
RP_Personenaufg,11,20,right,female,25,,,,RP,comp,,,,,,RPproc,0,507,circle.png,Mutter,,,Mutter
RP_Personenaufg,11,20,right,female,25,,,,RP,incomp,,,,,,RPproc,0,455,circle.png,Mutter,,,Bekannter
RP_Personenaufg,11,20,right,female,25,,,,RP,incomp,,,,,,RPproc,1,373,triangle.png,Bekannter,,,Mutter
RP_Personenaufg,11,20,right,female,25,,,,RP,comp,,,,,,RPproc,1,438,triangle.png,Bekannter,,,Bekannter
RP_Personenaufg,11,20,right,female,25,,,,RP,incomp,,,,,,RPproc,0,555,square.png,Ich,,,Mutter
RP_Personenaufg,11,20,right,female,25,,,,RP,incomp,,,,,,RPproc,0,541,triangle.png,Bekannter,,,Ich
RP_Personenaufg,11,20,right,female,25,,,,RP,incomp,,,,,,RPproc,0,480,circle.png,Mutter,,,Bekannter
RP_Personenaufg,11,20,right,female,25,,,,RP,comp,,,,,,RPproc,0,389,triangle.png,Bekannter,,,Bekannter
RP_Personenaufg,11,20,right,female,25,,,,RP,comp,,,,,,RPproc,0,559,triangle.png,Bekannter,,,Bekannter
RP_Personenaufg,11,20,right,female,25,,,,RP,comp,,,,,,RPproc,1,353,circle.png,Mutter,,,Mutter
RP_Personenaufg,11,20,right,female,25,,,,RP,incomp,,,,,,RPproc,0,594,circle.png,Mutter,,,Ich
RP_Personenaufg,11,20,right,female,25,,,,RP,comp,,,,,,RPproc,1,658,square.png,Ich,,,Ich
RP_Personenaufg,11,20,right,female,25,,,,RP,comp,,,,,,RPproc,1,614,circle.png,Mutter,,,Mutter
RP_Personenaufg,11,20,right,female,25,,,,RP,incomp,,,,,,RPproc,1,444,square.png,Ich,,,Bekannter
RP_Personenaufg,11,20,right,female,25,,,,RP,comp,,,,,,RPproc,0,658,square.png,Ich,,,Ich
RP_Personenaufg,11,20,right,female,25,,,,RP,incomp,,,,,,RPproc,1,504,triangle.png,Bekannter,,,Mutter
RP_Personenaufg,11,20,right,female,25,,,,RP,incomp,,,,,,RPproc,1,451,square.png,Ich,,,Mutter
RP_Personenaufg,11,20,right,female,25,,,,RP,comp,,,,,,RPproc,0,615,triangle.png,Bekannter,,,Bekannter
RP_Personenaufg,11,20,right,female,25,,,,RP,comp,,,,,,RPproc,1,438,circle.png,Mutter,,,Mutter
RP_Personenaufg,11,20,right,female,25,,,,RP,incomp,,,,,,RPproc,0,804,circle.png,Mutter,,,Ich
RP_Personenaufg,11,20,right,female,25,,,,RP,comp,,,,,,RPproc,1,475,square.png,Ich,,,Ich
RP_Personenaufg,11,20,right,female,25,,,,RP,incomp,,,,,,RPproc,0,400,triangle.png,Bekannter,,,Mutter
RP_Personenaufg,11,20,right,female,25,,,,RP,comp,,,,,,RPproc,0,480,square.png,Ich,,,Ich
RP_Personenaufg,11,20,right,female,25,,,,RP,incomp,,,,,,RPproc,1,365,square.png,Ich,,,Bekannter
RP_Personenaufg,11,20,right,female,25,,,,RP,comp,,,,,,RPproc,0,758,circle.png,Mutter,,,Mutter
RP_Personenaufg,11,20,right,female,25,,,,RP,comp,,,,,,RPproc,0,327,triangle.png,Bekannter,,,Bekannter
RP_Personenaufg,11,20,right,female,25,,,,RP,incomp,,,,,,RPproc,1,411,circle.png,Mutter,,,Bekannter
RP_Personenaufg,11,20,right,female,25,,,,RP,incomp,,,,,,RPproc,0,635,triangle.png,Bekannter,,,Ich
RP_Personenaufg,11,20,right,female,25,,,,RP,comp,,,,,,RPproc,0,481,square.png,Ich,,,Ich
RP_Personenaufg,11,20,right,female,25,,,,RP,comp,,,,,,RPproc,0,558,circle.png,Mutter,,,Mutter
RP_Personenaufg,11,20,right,female,25,,,,RP,incomp,,,,,,RPproc,0,647,triangle.png,Bekannter,,,Mutter
RP_Personenaufg,11,20,right,female,25,,,,RP,incomp,,,,,,RPproc,1,1069,triangle.png,Bekannter,,,Ich
RP_Personenaufg,11,20,right,female,25,,,,RP,comp,,,,,,RPproc,0,446,square.png,Ich,,,Ich
RP_Personenaufg,11,20,right,female,25,,,,RP,comp,,,,,,RPproc,0,517,circle.png,Mutter,,,Mutter
RP_Personenaufg,11,20,right,female,25,,,,RP,incomp,,,,,,RPproc,1,456,circle.png,Mutter,,,Bekannter
RP_Personenaufg,11,20,right,female,25,,,,RP,incomp,,,,,,RPproc,0,478,square.png,Ich,,,Mutter
RP_Personenaufg,11,20,right,female,25,,,,RP,comp,,,,,,RPproc,0,827,triangle.png,Bekannter,,,Bekannter
RP_Personenaufg,11,20,right,female,25,,,,RP,incomp,,,,,,RPproc,1,544,square.png,Ich,,,Bekannter
RP_Personenaufg,11,20,right,female,25,,,,RP,comp,,,,,,RPproc,0,626,triangle.png,Bekannter,,,Bekannter
RP_Personenaufg,11,20,right,female,25,,,,RP,incomp,,,,,,RPproc,0,425,circle.png,Mutter,,,Ich
RP_Personenaufg,11,20,right,female,26,,,,MT,im,l,square.png,Ich,1,657,MTproc,,,,,,,
RP_Personenaufg,11,20,right,female,26,,,,MT,mn,s,square.png,Mutter,0,623,MTproc,,,,,,,
RP_Personenaufg,11,20,right,female,26,,,,MT,bm,l,triangle.png,Bekannter,0,583,MTproc,,,,,,,
RP_Personenaufg,11,20,right,female,26,,,,MT,in,s,circle.png,Ich,0,561,MTproc,,,,,,,
RP_Personenaufg,11,20,right,female,26,,,,MT,bm,l,triangle.png,Bekannter,1,444,MTproc,,,,,,,
RP_Personenaufg,11,20,right,female,26,,,,MT,bn,s,square.png,Bekannter,0,429,MTproc,,,,,,,
RP_Personenaufg,11,20,right,female,26,,,,MT,in,s,triangle.png,Ich,0,804,MTproc,,,,,,,
RP_Personenaufg,11,20,right,female,26,,,,MT,bn,s,circle.png,Bekannter,0,1156,MTproc,,,,,,,
RP_Personenaufg,11,20,right,female,26,,,,MT,mm,l,circle.png,Mutter,0,571,MTproc,,,,,,,
RP_Personenaufg,11,20,right,female,26,,,,MT,mn,s,triangle.png,Mutter,0,646,MTproc,,,,,,,
RP_Personenaufg,11,20,right,female,26,,,,MT,im,l,square.png,Ich,0,1061,MTproc,,,,,,,
RP_Personenaufg,11,20,right,female,26,,,,MT,mm,l,circle.png,Mutter,1,1065,MTproc,,,,,,,
RP_Personenaufg,11,20,right,female,26,,,,MT,mn,s,triangle.png,Mutter,1,613,MTproc,,,,,,,
RP_Personenaufg,11,20,right,female,26,,,,MT,in,s,circle.png,Ich,0,518,MTproc,,,,,,,
RP_Personenaufg,11,20,right,female,26,,,,MT,bn,s,square.png,Bekannter,1,786,MTproc,,,,,,,
RP_Personenaufg,11,20,right,female,26,,,,MT,bm,l,triangle.png,Bekannter,1,1291,MTproc,,,,,,,
RP_Personenaufg,11,20,right,female,26,,,,MT,im,l,square.png,Ich,0,1052,MTproc,,,,,,,
RP_Personenaufg,11,20,right,female,26,,,,MT,im,l,square.png,Ich,1,976,MTproc,,,,,,,
RP_Personenaufg,11,20,right,female,26,,,,MT,mm,l,circle.png,Mutter,1,592,MTproc,,,,,,,
RP_Personenaufg,11,20,right,female,26,,,,MT,bn,s,circle.png,Bekannter,1,1066,MTproc,,,,,,,
RP_Personenaufg,11,20,right,female,26,,,,MT,mm,l,circle.png,Mutter,1,958,MTproc,,,,,,,
RP_Personenaufg,11,20,right,female,26,,,,MT,in,s,triangle.png,Ich,0,582,MTproc,,,,,,,
RP_Personenaufg,11,20,right,female,26,,,,MT,bm,l,triangle.png,Bekannter,1,863,MTproc,,,,,,,
RP_Personenaufg,11,20,right,female,26,,,,MT,mn,s,square.png,Mutter,1,804,MTproc,,,,,,,
RP_Personenaufg,11,20,right,female,26,,,,MT,bn,s,circle.png,Bekannter,1,932,MTproc,,,,,,,
RP_Personenaufg,11,20,right,female,26,,,,MT,mm,l,circle.png,Mutter,1,942,MTproc,,,,,,,
RP_Personenaufg,11,20,right,female,26,,,,MT,mn,s,triangle.png,Mutter,1,735,MTproc,,,,,,,
RP_Personenaufg,11,20,right,female,26,,,,MT,in,s,triangle.png,Ich,0,546,MTproc,,,,,,,
RP_Personenaufg,11,20,right,female,26,,,,MT,im,l,square.png,Ich,1,461,MTproc,,,,,,,
RP_Personenaufg,11,20,right,female,26,,,,MT,bn,s,square.png,Bekannter,1,669,MTproc,,,,,,,
RP_Personenaufg,11,20,right,female,26,,,,MT,in,s,circle.png,Ich,1,745,MTproc,,,,,,,
RP_Personenaufg,11,20,right,female,26,,,,MT,im,l,square.png,Ich,1,740,MTproc,,,,,,,
RP_Personenaufg,11,20,right,female,26,,,,MT,bm,l,triangle.png,Bekannter,1,807,MTproc,,,,,,,
RP_Personenaufg,11,20,right,female,26,,,,MT,mn,s,square.png,Mutter,1,838,MTproc,,,,,,,
RP_Personenaufg,11,20,right,female,26,,,,MT,bm,l,triangle.png,Bekannter,0,629,MTproc,,,,,,,
RP_Personenaufg,11,20,right,female,26,,,,MT,mm,l,circle.png,Mutter,1,829,MTproc,,,,,,,
RP_Personenaufg,11,20,right,female,26,,,,MT,im,l,square.png,Ich,0,523,MTproc,,,,,,,
RP_Personenaufg,11,20,right,female,26,,,,MT,bn,s,circle.png,Bekannter,0,456,MTproc,,,,,,,
RP_Personenaufg,11,20,right,female,26,,,,MT,mm,l,circle.png,Mutter,1,439,MTproc,,,,,,,
RP_Personenaufg,11,20,right,female,26,,,,MT,mn,s,triangle.png,Mutter,1,631,MTproc,,,,,,,
RP_Personenaufg,11,20,right,female,26,,,,MT,bm,l,triangle.png,Bekannter,1,679,MTproc,,,,,,,
RP_Personenaufg,11,20,right,female,26,,,,MT,im,l,square.png,Ich,1,405,MTproc,,,,,,,
RP_Personenaufg,11,20,right,female,26,,,,MT,bn,s,square.png,Bekannter,1,439,MTproc,,,,,,,
RP_Personenaufg,11,20,right,female,26,,,,MT,in,s,circle.png,Ich,1,848,MTproc,,,,,,,
RP_Personenaufg,11,20,right,female,26,,,,MT,mn,s,square.png,Mutter,1,1006,MTproc,,,,,,,
RP_Personenaufg,11,20,right,female,26,,,,MT,mm,l,circle.png,Mutter,1,524,MTproc,,,,,,,
RP_Personenaufg,11,20,right,female,26,,,,MT,in,s,triangle.png,Ich,1,408,MTproc,,,,,,,
RP_Personenaufg,11,20,right,female,26,,,,MT,bm,l,triangle.png,Bekannter,0,506,MTproc,,,,,,,
RP_Personenaufg,11,20,right,female,27,,,,RP,comp,,,,,,RPproc,1,950,triangle.png,Bekannter,,,Bekannter
RP_Personenaufg,11,20,right,female,27,,,,RP,incomp,,,,,,RPproc,1,892,square.png,Ich,,,Mutter
RP_Personenaufg,11,20,right,female,27,,,,RP,incomp,,,,,,RPproc,1,605,circle.png,Mutter,,,Bekannter
RP_Personenaufg,11,20,right,female,27,,,,RP,incomp,,,,,,RPproc,1,1156,triangle.png,Bekannter,,,Mutter
RP_Personenaufg,11,20,right,female,27,,,,RP,comp,,,,,,RPproc,1,785,square.png,Ich,,,Ich
RP_Personenaufg,11,20,right,female,27,,,,RP,comp,,,,,,RPproc,1,391,circle.png,Mutter,,,Mutter
RP_Personenaufg,11,20,right,female,27,,,,RP,comp,,,,,,RPproc,1,983,triangle.png,Bekannter,,,Bekannter
RP_Personenaufg,11,20,right,female,27,,,,RP,comp,,,,,,RPproc,0,500,circle.png,Mutter,,,Mutter
RP_Personenaufg,11,20,right,female,27,,,,RP,incomp,,,,,,RPproc,1,720,triangle.png,Bekannter,,,Ich
RP_Personenaufg,11,20,right,female,27,,,,RP,incomp,,,,,,RPproc,0,673,circle.png,Mutter,,,Ich
RP_Personenaufg,11,20,right,female,27,,,,RP,incomp,,,,,,RPproc,1,901,square.png,Ich,,,Bekannter
RP_Personenaufg,11,20,right,female,27,,,,RP,comp,,,,,,RPproc,1,1046,square.png,Ich,,,Ich
RP_Personenaufg,11,20,right,female,27,,,,RP,incomp,,,,,,RPproc,1,1032,triangle.png,Bekannter,,,Ich
RP_Personenaufg,11,20,right,female,27,,,,RP,comp,,,,,,RPproc,1,563,circle.png,Mutter,,,Mutter
RP_Personenaufg,11,20,right,female,27,,,,RP,incomp,,,,,,RPproc,1,579,square.png,Ich,,,Mutter
RP_Personenaufg,11,20,right,female,27,,,,RP,comp,,,,,,RPproc,1,787,square.png,Ich,,,Ich
RP_Personenaufg,11,20,right,female,27,,,,RP,incomp,,,,,,RPproc,1,1288,square.png,Ich,,,Bekannter
RP_Personenaufg,11,20,right,female,27,,,,RP,incomp,,,,,,RPproc,1,887,triangle.png,Bekannter,,,Mutter
RP_Personenaufg,11,20,right,female,27,,,,RP,comp,,,,,,RPproc,0,1417,square.png,Ich,,,Ich
RP_Personenaufg,11,20,right,female,27,,,,RP,incomp,,,,,,RPproc,0,564,circle.png,Mutter,,,Bekannter
RP_Personenaufg,11,20,right,female,27,,,,RP,incomp,,,,,,RPproc,0,1045,circle.png,Mutter,,,Ich
RP_Personenaufg,11,20,right,female,27,,,,RP,comp,,,,,,RPproc,0,583,triangle.png,Bekannter,,,Bekannter
RP_Personenaufg,11,20,right,female,27,,,,RP,comp,,,,,,RPproc,0,624,circle.png,Mutter,,,Mutter
RP_Personenaufg,11,20,right,female,27,,,,RP,comp,,,,,,RPproc,1,607,triangle.png,Bekannter,,,Bekannter
RP_Personenaufg,11,20,right,female,27,,,,RP,incomp,,,,,,RPproc,0,517,circle.png,Mutter,,,Ich
RP_Personenaufg,11,20,right,female,27,,,,RP,incomp,,,,,,RPproc,1,849,circle.png,Mutter,,,Bekannter
RP_Personenaufg,11,20,right,female,27,,,,RP,comp,,,,,,RPproc,1,564,square.png,Ich,,,Ich
RP_Personenaufg,11,20,right,female,27,,,,RP,comp,,,,,,RPproc,1,404,square.png,Ich,,,Ich
RP_Personenaufg,11,20,right,female,27,,,,RP,incomp,,,,,,RPproc,1,883,triangle.png,Bekannter,,,Ich
RP_Personenaufg,11,20,right,female,27,,,,RP,incomp,,,,,,RPproc,0,1084,square.png,Ich,,,Bekannter
RP_Personenaufg,11,20,right,female,27,,,,RP,incomp,,,,,,RPproc,1,1318,square.png,Ich,,,Mutter
RP_Personenaufg,11,20,right,female,27,,,,RP,comp,,,,,,RPproc,1,435,circle.png,Mutter,,,Mutter
RP_Personenaufg,11,20,right,female,27,,,,RP,comp,,,,,,RPproc,1,801,triangle.png,Bekannter,,,Bekannter
RP_Personenaufg,11,20,right,female,27,,,,RP,comp,,,,,,RPproc,0,663,circle.png,Mutter,,,Mutter
RP_Personenaufg,11,20,right,female,27,,,,RP,incomp,,,,,,RPproc,1,1123,triangle.png,Bekannter,,,Mutter
RP_Personenaufg,11,20,right,female,27,,,,RP,comp,,,,,,RPproc,1,530,triangle.png,Bekannter,,,Bekannter
RP_Personenaufg,11,20,right,female,27,,,,RP,comp,,,,,,RPproc,1,539,circle.png,Mutter,,,Mutter
RP_Personenaufg,11,20,right,female,27,,,,RP,incomp,,,,,,RPproc,1,973,square.png,Ich,,,Bekannter
RP_Personenaufg,11,20,right,female,27,,,,RP,incomp,,,,,,RPproc,1,850,square.png,Ich,,,Mutter
RP_Personenaufg,11,20,right,female,27,,,,RP,incomp,,,,,,RPproc,1,765,triangle.png,Bekannter,,,Mutter
RP_Personenaufg,11,20,right,female,27,,,,RP,incomp,,,,,,RPproc,1,580,triangle.png,Bekannter,,,Ich
RP_Personenaufg,11,20,right,female,27,,,,RP,comp,,,,,,RPproc,1,428,triangle.png,Bekannter,,,Bekannter
RP_Personenaufg,11,20,right,female,27,,,,RP,incomp,,,,,,RPproc,1,786,circle.png,Mutter,,,Ich
RP_Personenaufg,11,20,right,female,27,,,,RP,comp,,,,,,RPproc,1,544,square.png,Ich,,,Ich
RP_Personenaufg,11,20,right,female,27,,,,RP,incomp,,,,,,RPproc,0,561,circle.png,Mutter,,,Bekannter
RP_Personenaufg,11,20,right,female,27,,,,RP,comp,,,,,,RPproc,1,395,triangle.png,Bekannter,,,Bekannter
RP_Personenaufg,11,20,right,female,27,,,,RP,comp,,,,,,RPproc,1,499,circle.png,Mutter,,,Mutter
RP_Personenaufg,11,20,right,female,27,,,,RP,comp,,,,,,RPproc,1,446,square.png,Ich,,,Ich
RP_Personenaufg,11,20,right,female,28,,,,MT,in,s,triangle.png,Ich,0,580,MTproc,,,,,,,
RP_Personenaufg,11,20,right,female,28,,,,MT,bn,s,square.png,Bekannter,1,1054,MTproc,,,,,,,
RP_Personenaufg,11,20,right,female,28,,,,MT,in,s,circle.png,Ich,0,370,MTproc,,,,,,,
RP_Personenaufg,11,20,right,female,28,,,,MT,bn,s,circle.png,Bekannter,1,502,MTproc,,,,,,,
RP_Personenaufg,11,20,right,female,28,,,,MT,mn,s,triangle.png,Mutter,1,604,MTproc,,,,,,,
RP_Personenaufg,11,20,right,female,28,,,,MT,bm,l,triangle.png,Bekannter,0,403,MTproc,,,,,,,
RP_Personenaufg,11,20,right,female,28,,,,MT,mn,s,square.png,Mutter,1,501,MTproc,,,,,,,
RP_Personenaufg,11,20,right,female,28,,,,MT,im,l,square.png,Ich,1,243,MTproc,,,,,,,
RP_Personenaufg,11,20,right,female,28,,,,MT,bm,l,triangle.png,Bekannter,1,701,MTproc,,,,,,,
RP_Personenaufg,11,20,right,female,28,,,,MT,im,l,square.png,Ich,0,473,MTproc,,,,,,,
RP_Personenaufg,11,20,right,female,28,,,,MT,mm,l,circle.png,Mutter,1,528,MTproc,,,,,,,
RP_Personenaufg,11,20,right,female,28,,,,MT,mm,l,circle.png,Mutter,0,453,MTproc,,,,,,,
RP_Personenaufg,11,20,right,female,28,,,,MT,bn,s,square.png,Bekannter,1,524,MTproc,,,,,,,
RP_Personenaufg,11,20,right,female,28,,,,MT,mm,l,circle.png,Mutter,1,601,MTproc,,,,,,,
RP_Personenaufg,11,20,right,female,28,,,,MT,in,s,circle.png,Ich,0,394,MTproc,,,,,,,
RP_Personenaufg,11,20,right,female,28,,,,MT,mn,s,square.png,Mutter,1,796,MTproc,,,,,,,
RP_Personenaufg,11,20,right,female,28,,,,MT,bm,l,triangle.png,Bekannter,1,492,MTproc,,,,,,,
RP_Personenaufg,11,20,right,female,28,,,,MT,mn,s,triangle.png,Mutter,1,626,MTproc,,,,,,,
RP_Personenaufg,11,20,right,female,28,,,,MT,im,l,square.png,Ich,1,498,MTproc,,,,,,,
RP_Personenaufg,11,20,right,female,28,,,,MT,mm,l,circle.png,Mutter,0,681,MTproc,,,,,,,
RP_Personenaufg,11,20,right,female,28,,,,MT,bm,l,triangle.png,Bekannter,1,958,MTproc,,,,,,,
RP_Personenaufg,11,20,right,female,28,,,,MT,im,l,square.png,Ich,1,327,MTproc,,,,,,,
RP_Personenaufg,11,20,right,female,28,,,,MT,in,s,triangle.png,Ich,0,269,MTproc,,,,,,,
RP_Personenaufg,11,20,right,female,28,,,,MT,bn,s,circle.png,Bekannter,1,709,MTproc,,,,,,,
RP_Personenaufg,11,20,right,female,28,,,,MT,mm,l,circle.png,Mutter,0,584,MTproc,,,,,,,
RP_Personenaufg,11,20,right,female,28,,,,MT,mm,l,circle.png,Mutter,1,474,MTproc,,,,,,,
RP_Personenaufg,11,20,right,female,28,,,,MT,im,l,square.png,Ich,1,489,MTproc,,,,,,,
RP_Personenaufg,11,20,right,female,28,,,,MT,mn,s,triangle.png,Mutter,1,559,MTproc,,,,,,,
RP_Personenaufg,11,20,right,female,28,,,,MT,in,s,circle.png,Ich,0,474,MTproc,,,,,,,
RP_Personenaufg,11,20,right,female,28,,,,MT,im,l,square.png,Ich,1,441,MTproc,,,,,,,
RP_Personenaufg,11,20,right,female,28,,,,MT,bn,s,square.png,Bekannter,1,618,MTproc,,,,,,,
RP_Personenaufg,11,20,right,female,28,,,,MT,bn,s,circle.png,Bekannter,1,762,MTproc,,,,,,,
RP_Personenaufg,11,20,right,female,28,,,,MT,in,s,triangle.png,Ich,0,387,MTproc,,,,,,,
RP_Personenaufg,11,20,right,female,28,,,,MT,mn,s,square.png,Mutter,0,630,MTproc,,,,,,,
RP_Personenaufg,11,20,right,female,28,,,,MT,bm,l,triangle.png,Bekannter,1,742,MTproc,,,,,,,
RP_Personenaufg,11,20,right,female,28,,,,MT,bm,l,triangle.png,Bekannter,1,681,MTproc,,,,,,,
RP_Personenaufg,11,20,right,female,28,,,,MT,in,s,circle.png,Ich,1,678,MTproc,,,,,,,
RP_Personenaufg,11,20,right,female,28,,,,MT,in,s,triangle.png,Ich,0,483,MTproc,,,,,,,
RP_Personenaufg,11,20,right,female,28,,,,MT,im,l,square.png,Ich,1,394,MTproc,,,,,,,
RP_Personenaufg,11,20,right,female,28,,,,MT,bm,l,triangle.png,Bekannter,1,716,MTproc,,,,,,,
RP_Personenaufg,11,20,right,female,28,,,,MT,mn,s,triangle.png,Mutter,1,584,MTproc,,,,,,,
RP_Personenaufg,11,20,right,female,28,,,,MT,bn,s,square.png,Bekannter,1,721,MTproc,,,,,,,
RP_Personenaufg,11,20,right,female,28,,,,MT,bn,s,circle.png,Bekannter,1,700,MTproc,,,,,,,
RP_Personenaufg,11,20,right,female,28,,,,MT,mm,l,circle.png,Mutter,0,480,MTproc,,,,,,,
RP_Personenaufg,11,20,right,female,28,,,,MT,bm,l,triangle.png,Bekannter,1,622,MTproc,,,,,,,
RP_Personenaufg,11,20,right,female,28,,,,MT,mn,s,square.png,Mutter,1,366,MTproc,,,,,,,
RP_Personenaufg,11,20,right,female,28,,,,MT,im,l,square.png,Ich,1,554,MTproc,,,,,,,
RP_Personenaufg,11,20,right,female,28,,,,MT,mm,l,circle.png,Mutter,0,581,MTproc,,,,,,,
RP_Personenaufg,11,20,right,female,29,,,,RP,comp,,,,,,RPproc,0,307,circle.png,Mutter,,,Mutter
RP_Personenaufg,11,20,right,female,29,,,,RP,comp,,,,,,RPproc,1,344,square.png,Ich,,,Ich
RP_Personenaufg,11,20,right,female,29,,,,RP,incomp,,,,,,RPproc,1,923,circle.png,Mutter,,,Bekannter
RP_Personenaufg,11,20,right,female,29,,,,RP,comp,,,,,,RPproc,1,626,triangle.png,Bekannter,,,Bekannter
RP_Personenaufg,11,20,right,female,29,,,,RP,comp,,,,,,RPproc,1,368,square.png,Ich,,,Ich
RP_Personenaufg,11,20,right,female,29,,,,RP,incomp,,,,,,RPproc,1,817,triangle.png,Bekannter,,,Mutter
RP_Personenaufg,11,20,right,female,29,,,,RP,incomp,,,,,,RPproc,1,686,triangle.png,Bekannter,,,Ich
RP_Personenaufg,11,20,right,female,29,,,,RP,incomp,,,,,,RPproc,1,656,square.png,Ich,,,Bekannter
RP_Personenaufg,11,20,right,female,29,,,,RP,incomp,,,,,,RPproc,1,564,circle.png,Mutter,,,Ich
RP_Personenaufg,11,20,right,female,29,,,,RP,incomp,,,,,,RPproc,1,845,square.png,Ich,,,Mutter
RP_Personenaufg,11,20,right,female,29,,,,RP,comp,,,,,,RPproc,1,536,circle.png,Mutter,,,Mutter
RP_Personenaufg,11,20,right,female,29,,,,RP,comp,,,,,,RPproc,0,441,triangle.png,Bekannter,,,Bekannter
RP_Personenaufg,11,20,right,female,29,,,,RP,incomp,,,,,,RPproc,1,384,triangle.png,Bekannter,,,Mutter
RP_Personenaufg,11,20,right,female,29,,,,RP,comp,,,,,,RPproc,0,505,circle.png,Mutter,,,Mutter
RP_Personenaufg,11,20,right,female,29,,,,RP,comp,,,,,,RPproc,0,581,triangle.png,Bekannter,,,Bekannter
RP_Personenaufg,11,20,right,female,29,,,,RP,incomp,,,,,,RPproc,1,494,triangle.png,Bekannter,,,Ich
RP_Personenaufg,11,20,right,female,29,,,,RP,incomp,,,,,,RPproc,1,577,circle.png,Mutter,,,Bekannter
RP_Personenaufg,11,20,right,female,29,,,,RP,comp,,,,,,RPproc,1,666,square.png,Ich,,,Ich
RP_Personenaufg,11,20,right,female,29,,,,RP,incomp,,,,,,RPproc,1,628,square.png,Ich,,,Mutter
RP_Personenaufg,11,20,right,female,29,,,,RP,comp,,,,,,RPproc,1,402,square.png,Ich,,,Ich
RP_Personenaufg,11,20,right,female,29,,,,RP,incomp,,,,,,RPproc,1,754,circle.png,Mutter,,,Ich
RP_Personenaufg,11,20,right,female,29,,,,RP,comp,,,,,,RPproc,1,521,circle.png,Mutter,,,Mutter
RP_Personenaufg,11,20,right,female,29,,,,RP,incomp,,,,,,RPproc,0,588,square.png,Ich,,,Bekannter
RP_Personenaufg,11,20,right,female,29,,,,RP,comp,,,,,,RPproc,1,508,triangle.png,Bekannter,,,Bekannter
RP_Personenaufg,11,20,right,female,29,,,,RP,comp,,,,,,RPproc,1,479,square.png,Ich,,,Ich
RP_Personenaufg,11,20,right,female,29,,,,RP,incomp,,,,,,RPproc,1,1211,triangle.png,Bekannter,,,Ich
RP_Personenaufg,11,20,right,female,29,,,,RP,comp,,,,,,RPproc,1,414,triangle.png,Bekannter,,,Bekannter
RP_Personenaufg,11,20,right,female,29,,,,RP,incomp,,,,,,RPproc,1,460,circle.png,Mutter,,,Bekannter
RP_Personenaufg,11,20,right,female,29,,,,RP,incomp,,,,,,RPproc,1,1297,square.png,Ich,,,Mutter
RP_Personenaufg,11,20,right,female,29,,,,RP,comp,,,,,,RPproc,1,456,square.png,Ich,,,Ich
RP_Personenaufg,11,20,right,female,29,,,,RP,comp,,,,,,RPproc,1,614,circle.png,Mutter,,,Mutter
RP_Personenaufg,11,20,right,female,29,,,,RP,incomp,,,,,,RPproc,1,1220,square.png,Ich,,,Bekannter
RP_Personenaufg,11,20,right,female,29,,,,RP,comp,,,,,,RPproc,1,470,triangle.png,Bekannter,,,Bekannter
RP_Personenaufg,11,20,right,female,29,,,,RP,incomp,,,,,,RPproc,1,1018,triangle.png,Bekannter,,,Mutter
RP_Personenaufg,11,20,right,female,29,,,,RP,comp,,,,,,RPproc,1,845,circle.png,Mutter,,,Mutter
RP_Personenaufg,11,20,right,female,29,,,,RP,incomp,,,,,,RPproc,1,633,circle.png,Mutter,,,Ich
RP_Personenaufg,11,20,right,female,29,,,,RP,comp,,,,,,RPproc,1,1470,circle.png,Mutter,,,Mutter
RP_Personenaufg,11,20,right,female,29,,,,RP,incomp,,,,,,RPproc,1,836,square.png,Ich,,,Mutter
RP_Personenaufg,11,20,right,female,29,,,,RP,comp,,,,,,RPproc,1,608,circle.png,Mutter,,,Mutter
RP_Personenaufg,11,20,right,female,29,,,,RP,comp,,,,,,RPproc,1,1062,triangle.png,Bekannter,,,Bekannter
RP_Personenaufg,11,20,right,female,29,,,,RP,incomp,,,,,,RPproc,1,1416,circle.png,Mutter,,,Ich
RP_Personenaufg,11,20,right,female,29,,,,RP,incomp,,,,,,RPproc,1,777,triangle.png,Bekannter,,,Ich
RP_Personenaufg,11,20,right,female,29,,,,RP,incomp,,,,,,RPproc,1,632,circle.png,Mutter,,,Bekannter
RP_Personenaufg,11,20,right,female,29,,,,RP,comp,,,,,,RPproc,0,613,triangle.png,Bekannter,,,Bekannter
RP_Personenaufg,11,20,right,female,29,,,,RP,comp,,,,,,RPproc,0,492,square.png,Ich,,,Ich
RP_Personenaufg,11,20,right,female,29,,,,RP,comp,,,,,,RPproc,1,729,square.png,Ich,,,Ich
RP_Personenaufg,11,20,right,female,29,,,,RP,incomp,,,,,,RPproc,1,699,triangle.png,Bekannter,,,Mutter
RP_Personenaufg,11,20,right,female,29,,,,RP,incomp,,,,,,RPproc,0,1211,square.png,Ich,,,Bekannter
RP_Personenaufg,11,20,right,female,30,,,,MT,bm,l,triangle.png,Bekannter,0,853,MTproc,,,,,,,
RP_Personenaufg,11,20,right,female,30,,,,MT,mn,s,square.png,Mutter,0,1370,MTproc,,,,,,,
RP_Personenaufg,11,20,right,female,30,,,,MT,in,s,triangle.png,Ich,1,1440,MTproc,,,,,,,
RP_Personenaufg,11,20,right,female,30,,,,MT,bn,s,circle.png,Bekannter,1,667,MTproc,,,,,,,
RP_Personenaufg,11,20,right,female,30,,,,MT,bn,s,square.png,Bekannter,1,761,MTproc,,,,,,,
RP_Personenaufg,11,20,right,female,30,,,,MT,bm,l,triangle.png,Bekannter,1,402,MTproc,,,,,,,
RP_Personenaufg,11,20,right,female,30,,,,MT,mm,l,circle.png,Mutter,0,588,MTproc,,,,,,,
RP_Personenaufg,11,20,right,female,30,,,,MT,im,l,square.png,Ich,1,429,MTproc,,,,,,,
RP_Personenaufg,11,20,right,female,30,,,,MT,mn,s,triangle.png,Mutter,0,374,MTproc,,,,,,,
RP_Personenaufg,11,20,right,female,30,,,,MT,im,l,square.png,Ich,1,497,MTproc,,,,,,,
RP_Personenaufg,11,20,right,female,30,,,,MT,in,s,circle.png,Ich,1,615,MTproc,,,,,,,
RP_Personenaufg,11,20,right,female,30,,,,MT,mm,l,circle.png,Mutter,1,312,MTproc,,,,,,,
RP_Personenaufg,11,20,right,female,30,,,,MT,im,l,square.png,Ich,1,582,MTproc,,,,,,,
RP_Personenaufg,11,20,right,female,30,,,,MT,mm,l,circle.png,Mutter,1,520,MTproc,,,,,,,
RP_Personenaufg,11,20,right,female,30,,,,MT,im,l,square.png,Ich,1,484,MTproc,,,,,,,
RP_Personenaufg,11,20,right,female,30,,,,MT,in,s,circle.png,Ich,1,570,MTproc,,,,,,,
RP_Personenaufg,11,20,right,female,30,,,,MT,mn,s,square.png,Mutter,1,740,MTproc,,,,,,,
RP_Personenaufg,11,20,right,female,30,,,,MT,bm,l,triangle.png,Bekannter,1,719,MTproc,,,,,,,
RP_Personenaufg,11,20,right,female,30,,,,MT,bn,s,circle.png,Bekannter,1,659,MTproc,,,,,,,
RP_Personenaufg,11,20,right,female,30,,,,MT,mn,s,triangle.png,Mutter,1,785,MTproc,,,,,,,
RP_Personenaufg,11,20,right,female,30,,,,MT,bm,l,triangle.png,Bekannter,1,545,MTproc,,,,,,,
RP_Personenaufg,11,20,right,female,30,,,,MT,in,s,triangle.png,Ich,1,693,MTproc,,,,,,,
RP_Personenaufg,11,20,right,female,30,,,,MT,bn,s,square.png,Bekannter,1,769,MTproc,,,,,,,
RP_Personenaufg,11,20,right,female,30,,,,MT,mm,l,circle.png,Mutter,1,547,MTproc,,,,,,,
RP_Personenaufg,11,20,right,female,30,,,,MT,mn,s,triangle.png,Mutter,1,462,MTproc,,,,,,,
RP_Personenaufg,11,20,right,female,30,,,,MT,bm,l,triangle.png,Bekannter,1,709,MTproc,,,,,,,
RP_Personenaufg,11,20,right,female,30,,,,MT,in,s,triangle.png,Ich,1,514,MTproc,,,,,,,
RP_Personenaufg,11,20,right,female,30,,,,MT,mn,s,square.png,Mutter,1,598,MTproc,,,,,,,
RP_Personenaufg,11,20,right,female,30,,,,MT,bm,l,triangle.png,Bekannter,0,672,MTproc,,,,,,,
RP_Personenaufg,11,20,right,female,30,,,,MT,im,l,square.png,Ich,1,454,MTproc,,,,,,,
RP_Personenaufg,11,20,right,female,30,,,,MT,mm,l,circle.png,Mutter,1,590,MTproc,,,,,,,
RP_Personenaufg,11,20,right,female,30,,,,MT,mm,l,circle.png,Mutter,1,1182,MTproc,,,,,,,
RP_Personenaufg,11,20,right,female,30,,,,MT,in,s,circle.png,Ich,1,717,MTproc,,,,,,,
RP_Personenaufg,11,20,right,female,30,,,,MT,bn,s,circle.png,Bekannter,1,768,MTproc,,,,,,,
RP_Personenaufg,11,20,right,female,30,,,,MT,im,l,square.png,Ich,1,946,MTproc,,,,,,,
RP_Personenaufg,11,20,right,female,30,,,,MT,bn,s,square.png,Bekannter,1,540,MTproc,,,,,,,
RP_Personenaufg,11,20,right,female,30,,,,MT,mn,s,square.png,Mutter,1,736,MTproc,,,,,,,
RP_Personenaufg,11,20,right,female,30,,,,MT,bm,l,triangle.png,Bekannter,1,530,MTproc,,,,,,,
RP_Personenaufg,11,20,right,female,30,,,,MT,bm,l,triangle.png,Bekannter,1,951,MTproc,,,,,,,
RP_Personenaufg,11,20,right,female,30,,,,MT,in,s,circle.png,Ich,0,535,MTproc,,,,,,,
RP_Personenaufg,11,20,right,female,30,,,,MT,mm,l,circle.png,Mutter,0,715,MTproc,,,,,,,
RP_Personenaufg,11,20,right,female,30,,,,MT,im,l,square.png,Ich,0,751,MTproc,,,,,,,
RP_Personenaufg,11,20,right,female,30,,,,MT,im,l,square.png,Ich,0,0,MTproc,,,,,,,
RP_Personenaufg,11,20,right,female,30,,,,MT,mn,s,triangle.png,Mutter,1,809,MTproc,,,,,,,
RP_Personenaufg,11,20,right,female,30,,,,MT,mm,l,circle.png,Mutter,1,545,MTproc,,,,,,,
RP_Personenaufg,11,20,right,female,30,,,,MT,in,s,triangle.png,Ich,1,757,MTproc,,,,,,,
RP_Personenaufg,11,20,right,female,30,,,,MT,bn,s,circle.png,Bekannter,1,838,MTproc,,,,,,,
RP_Personenaufg,11,20,right,female,30,,,,MT,bn,s,square.png,Bekannter,0,908,MTproc,,,,,,,
RP_Personenaufg,11,20,right,female,31,,,,quest,,,,,,,,,,,,1,6226,
RP_Personenaufg,11,20,right,female,32,,,,quest,,,,,,,,,,,,1,2060,
RP_Personenaufg,11,20,right,female,33,,,,quest,,,,,,,,,,,,1,1908,
RP_Personenaufg,11,20,right,female,34,,,,quest,,,,,,,,,,,,1,3476,
RP_Personenaufg,11,20,right,female,35,,,,quest,,,,,,,,,,,,1,3499,
RP_Personenaufg,11,20,right,female,36,,,,quest,,,,,,,,,,,,1,2442,
RP_Personenaufg,11,20,right,female,37,,,,quest,,,,,,,,,,,,1,3977,
RP_Personenaufg,11,20,right,female,38,,,,quest,,,,,,,,,,,,1,3194,
RP_Personenaufg,11,20,right,female,39,,,,quest,,,,,,,,,,,,1,3853,
RP_Personenaufg,11,20,right,female,40,,,,quest,,,,,,,,,,,,1,2580,
RP_Personenaufg,12,23,right,female,1,in,s,triangle.png,Mprac,,,,,,,,,,,,,,
RP_Personenaufg,12,23,right,female,2,bn,s,triangle.png,Mprac,,,,,,,,,,,,,,
RP_Personenaufg,12,23,right,female,3,mn,s,circle.png,Mprac,,,,,,,,,,,,,,
RP_Personenaufg,12,23,right,female,4,bm,l,square.png,Mprac,,,,,,,,,,,,,,
RP_Personenaufg,12,23,right,female,5,mm,l,triangle.png,Mprac,,,,,,,,,,,,,,
RP_Personenaufg,12,23,right,female,6,in,s,square.png,Mprac,,,,,,,,,,,,,,
RP_Personenaufg,12,23,right,female,7,im,l,circle.png,Mprac,,,,,,,,,,,,,,
RP_Personenaufg,12,23,right,female,8,mm,l,triangle.png,Mprac,,,,,,,,,,,,,,
RP_Personenaufg,12,23,right,female,9,bm,l,square.png,Mprac,,,,,,,,,,,,,,
RP_Personenaufg,12,23,right,female,10,mn,s,square.png,Mprac,,,,,,,,,,,,,,
RP_Personenaufg,12,23,right,female,11,im,l,circle.png,Mprac,,,,,,,,,,,,,,
RP_Personenaufg,12,23,right,female,12,bn,s,circle.png,Mprac,,,,,,,,,,,,,,
RP_Personenaufg,12,23,right,female,13,mn,s,circle.png,Mprac,,,,,,,,,,,,,,
RP_Personenaufg,12,23,right,female,14,in,s,square.png,Mprac,,,,,,,,,,,,,,
RP_Personenaufg,12,23,right,female,15,im,l,circle.png,Mprac,,,,,,,,,,,,,,
RP_Personenaufg,12,23,right,female,16,bn,s,circle.png,Mprac,,,,,,,,,,,,,,
RP_Personenaufg,12,23,right,female,17,mn,s,square.png,Mprac,,,,,,,,,,,,,,
RP_Personenaufg,12,23,right,female,18,bm,l,square.png,Mprac,,,,,,,,,,,,,,
RP_Personenaufg,12,23,right,female,19,mm,l,triangle.png,Mprac,,,,,,,,,,,,,,
RP_Personenaufg,12,23,right,female,20,bm,l,square.png,Mprac,,,,,,,,,,,,,,
RP_Personenaufg,12,23,right,female,21,in,s,triangle.png,Mprac,,,,,,,,,,,,,,
RP_Personenaufg,12,23,right,female,22,mm,l,triangle.png,Mprac,,,,,,,,,,,,,,
RP_Personenaufg,12,23,right,female,23,im,l,circle.png,Mprac,,,,,,,,,,,,,,
RP_Personenaufg,12,23,right,female,24,bn,s,triangle.png,Mprac,,,,,,,,,,,,,,
RP_Personenaufg,12,23,right,female,25,,,,RP,comp,,,,,,RPproc,1,2815,triangle.png,Mutter,,,Mutter
RP_Personenaufg,12,23,right,female,25,,,,RP,comp,,,,,,RPproc,1,1784,circle.png,Ich,,,Ich
RP_Personenaufg,12,23,right,female,25,,,,RP,comp,,,,,,RPproc,1,801,square.png,Bekannter,,,Bekannter
RP_Personenaufg,12,23,right,female,25,,,,RP,comp,,,,,,RPproc,1,1222,square.png,Bekannter,,,Bekannter
RP_Personenaufg,12,23,right,female,25,,,,RP,incomp,,,,,,RPproc,1,920,square.png,Bekannter,,,Ich
RP_Personenaufg,12,23,right,female,25,,,,RP,incomp,,,,,,RPproc,1,520,circle.png,Ich,,,Mutter
RP_Personenaufg,12,23,right,female,25,,,,RP,incomp,,,,,,RPproc,1,674,circle.png,Ich,,,Bekannter
RP_Personenaufg,12,23,right,female,25,,,,RP,comp,,,,,,RPproc,1,541,triangle.png,Mutter,,,Mutter
RP_Personenaufg,12,23,right,female,25,,,,RP,incomp,,,,,,RPproc,1,726,triangle.png,Mutter,,,Ich
RP_Personenaufg,12,23,right,female,25,,,,RP,incomp,,,,,,RPproc,1,639,triangle.png,Mutter,,,Bekannter
RP_Personenaufg,12,23,right,female,25,,,,RP,incomp,,,,,,RPproc,1,684,square.png,Bekannter,,,Mutter
RP_Personenaufg,12,23,right,female,25,,,,RP,comp,,,,,,RPproc,0,623,circle.png,Ich,,,Ich
RP_Personenaufg,12,23,right,female,25,,,,RP,incomp,,,,,,RPproc,0,878,square.png,Bekannter,,,Ich
RP_Personenaufg,12,23,right,female,25,,,,RP,incomp,,,,,,RPproc,1,713,circle.png,Ich,,,Bekannter
RP_Personenaufg,12,23,right,female,25,,,,RP,comp,,,,,,RPproc,1,747,triangle.png,Mutter,,,Mutter
RP_Personenaufg,12,23,right,female,25,,,,RP,comp,,,,,,RPproc,1,491,square.png,Bekannter,,,Bekannter
RP_Personenaufg,12,23,right,female,25,,,,RP,incomp,,,,,,RPproc,1,1454,triangle.png,Mutter,,,Ich
RP_Personenaufg,12,23,right,female,25,,,,RP,incomp,,,,,,RPproc,1,550,circle.png,Ich,,,Mutter
RP_Personenaufg,12,23,right,female,25,,,,RP,comp,,,,,,RPproc,1,374,circle.png,Ich,,,Ich
RP_Personenaufg,12,23,right,female,25,,,,RP,comp,,,,,,RPproc,1,336,circle.png,Ich,,,Ich
RP_Personenaufg,12,23,right,female,25,,,,RP,incomp,,,,,,RPproc,1,634,square.png,Bekannter,,,Mutter
RP_Personenaufg,12,23,right,female,25,,,,RP,incomp,,,,,,RPproc,1,647,triangle.png,Mutter,,,Bekannter
RP_Personenaufg,12,23,right,female,25,,,,RP,comp,,,,,,RPproc,1,588,square.png,Bekannter,,,Bekannter
RP_Personenaufg,12,23,right,female,25,,,,RP,comp,,,,,,RPproc,1,963,triangle.png,Mutter,,,Mutter
RP_Personenaufg,12,23,right,female,25,,,,RP,incomp,,,,,,RPproc,1,529,square.png,Bekannter,,,Ich
RP_Personenaufg,12,23,right,female,25,,,,RP,incomp,,,,,,RPproc,1,700,square.png,Bekannter,,,Mutter
RP_Personenaufg,12,23,right,female,25,,,,RP,comp,,,,,,RPproc,1,526,triangle.png,Mutter,,,Mutter
RP_Personenaufg,12,23,right,female,25,,,,RP,incomp,,,,,,RPproc,1,527,triangle.png,Mutter,,,Ich
RP_Personenaufg,12,23,right,female,25,,,,RP,comp,,,,,,RPproc,1,593,circle.png,Ich,,,Ich
RP_Personenaufg,12,23,right,female,25,,,,RP,incomp,,,,,,RPproc,1,745,circle.png,Ich,,,Mutter
RP_Personenaufg,12,23,right,female,25,,,,RP,comp,,,,,,RPproc,1,481,triangle.png,Mutter,,,Mutter
RP_Personenaufg,12,23,right,female,25,,,,RP,comp,,,,,,RPproc,1,493,circle.png,Ich,,,Ich
RP_Personenaufg,12,23,right,female,25,,,,RP,incomp,,,,,,RPproc,1,577,triangle.png,Mutter,,,Bekannter
RP_Personenaufg,12,23,right,female,25,,,,RP,comp,,,,,,RPproc,1,1169,square.png,Bekannter,,,Bekannter
RP_Personenaufg,12,23,right,female,25,,,,RP,comp,,,,,,RPproc,1,461,square.png,Bekannter,,,Bekannter
RP_Personenaufg,12,23,right,female,25,,,,RP,incomp,,,,,,RPproc,1,563,circle.png,Ich,,,Bekannter
RP_Personenaufg,12,23,right,female,25,,,,RP,incomp,,,,,,RPproc,1,595,square.png,Bekannter,,,Ich
RP_Personenaufg,12,23,right,female,25,,,,RP,incomp,,,,,,RPproc,1,459,triangle.png,Mutter,,,Ich
RP_Personenaufg,12,23,right,female,25,,,,RP,comp,,,,,,RPproc,1,528,square.png,Bekannter,,,Bekannter
RP_Personenaufg,12,23,right,female,25,,,,RP,comp,,,,,,RPproc,1,521,triangle.png,Mutter,,,Mutter
RP_Personenaufg,12,23,right,female,25,,,,RP,comp,,,,,,RPproc,1,468,square.png,Bekannter,,,Bekannter
RP_Personenaufg,12,23,right,female,25,,,,RP,incomp,,,,,,RPproc,1,536,circle.png,Ich,,,Bekannter
RP_Personenaufg,12,23,right,female,25,,,,RP,comp,,,,,,RPproc,1,354,circle.png,Ich,,,Ich
RP_Personenaufg,12,23,right,female,25,,,,RP,comp,,,,,,RPproc,1,380,circle.png,Ich,,,Ich
RP_Personenaufg,12,23,right,female,25,,,,RP,incomp,,,,,,RPproc,1,461,triangle.png,Mutter,,,Bekannter
RP_Personenaufg,12,23,right,female,25,,,,RP,incomp,,,,,,RPproc,1,730,square.png,Bekannter,,,Mutter
RP_Personenaufg,12,23,right,female,25,,,,RP,incomp,,,,,,RPproc,1,435,circle.png,Ich,,,Mutter
RP_Personenaufg,12,23,right,female,25,,,,RP,comp,,,,,,RPproc,1,505,triangle.png,Mutter,,,Mutter
RP_Personenaufg,12,23,right,female,26,,,,MT,bm,l,square.png,Bekannter,0,1036,MTproc,,,,,,,
RP_Personenaufg,12,23,right,female,26,,,,MT,in,s,triangle.png,Ich,1,1209,MTproc,,,,,,,
RP_Personenaufg,12,23,right,female,26,,,,MT,mm,l,triangle.png,Mutter,0,766,MTproc,,,,,,,
RP_Personenaufg,12,23,right,female,26,,,,MT,im,l,circle.png,Ich,1,848,MTproc,,,,,,,
RP_Personenaufg,12,23,right,female,26,,,,MT,in,s,square.png,Ich,1,638,MTproc,,,,,,,
RP_Personenaufg,12,23,right,female,26,,,,MT,mm,l,triangle.png,Mutter,0,0,MTproc,,,,,,,
RP_Personenaufg,12,23,right,female,26,,,,MT,bn,s,circle.png,Bekannter,1,701,MTproc,,,,,,,
RP_Personenaufg,12,23,right,female,26,,,,MT,bm,l,square.png,Bekannter,0,882,MTproc,,,,,,,
RP_Personenaufg,12,23,right,female,26,,,,MT,bn,s,triangle.png,Bekannter,1,660,MTproc,,,,,,,
RP_Personenaufg,12,23,right,female,26,,,,MT,mn,s,circle.png,Mutter,1,1171,MTproc,,,,,,,
RP_Personenaufg,12,23,right,female,26,,,,MT,mn,s,square.png,Mutter,1,1122,MTproc,,,,,,,
RP_Personenaufg,12,23,right,female,26,,,,MT,im,l,circle.png,Ich,1,618,MTproc,,,,,,,
RP_Personenaufg,12,23,right,female,26,,,,MT,in,s,triangle.png,Ich,1,611,MTproc,,,,,,,
RP_Personenaufg,12,23,right,female,26,,,,MT,mn,s,square.png,Mutter,1,755,MTproc,,,,,,,
RP_Personenaufg,12,23,right,female,26,,,,MT,mm,l,triangle.png,Mutter,1,877,MTproc,,,,,,,
RP_Personenaufg,12,23,right,female,26,,,,MT,bm,l,square.png,Bekannter,1,922,MTproc,,,,,,,
RP_Personenaufg,12,23,right,female,26,,,,MT,bm,l,square.png,Bekannter,1,956,MTproc,,,,,,,
RP_Personenaufg,12,23,right,female,26,,,,MT,mn,s,circle.png,Mutter,1,581,MTproc,,,,,,,
RP_Personenaufg,12,23,right,female,26,,,,MT,im,l,circle.png,Ich,1,597,MTproc,,,,,,,
RP_Personenaufg,12,23,right,female,26,,,,MT,bn,s,triangle.png,Bekannter,1,615,MTproc,,,,,,,
RP_Personenaufg,12,23,right,female,26,,,,MT,mm,l,triangle.png,Mutter,1,656,MTproc,,,,,,,
RP_Personenaufg,12,23,right,female,26,,,,MT,im,l,circle.png,Ich,1,550,MTproc,,,,,,,
RP_Personenaufg,12,23,right,female,26,,,,MT,in,s,square.png,Ich,1,617,MTproc,,,,,,,
RP_Personenaufg,12,23,right,female,26,,,,MT,bn,s,circle.png,Bekannter,1,705,MTproc,,,,,,,
RP_Personenaufg,12,23,right,female,26,,,,MT,im,l,circle.png,Ich,1,550,MTproc,,,,,,,
RP_Personenaufg,12,23,right,female,26,,,,MT,in,s,square.png,Ich,1,673,MTproc,,,,,,,
RP_Personenaufg,12,23,right,female,26,,,,MT,mn,s,circle.png,Mutter,1,774,MTproc,,,,,,,
RP_Personenaufg,12,23,right,female,26,,,,MT,mn,s,square.png,Mutter,1,936,MTproc,,,,,,,
RP_Personenaufg,12,23,right,female,26,,,,MT,in,s,triangle.png,Ich,1,665,MTproc,,,,,,,
RP_Personenaufg,12,23,right,female,26,,,,MT,im,l,circle.png,Ich,1,454,MTproc,,,,,,,
RP_Personenaufg,12,23,right,female,26,,,,MT,bn,s,circle.png,Bekannter,1,558,MTproc,,,,,,,
RP_Personenaufg,12,23,right,female,26,,,,MT,bn,s,triangle.png,Bekannter,1,841,MTproc,,,,,,,
RP_Personenaufg,12,23,right,female,26,,,,MT,bm,l,square.png,Bekannter,1,815,MTproc,,,,,,,
RP_Personenaufg,12,23,right,female,26,,,,MT,mm,l,triangle.png,Mutter,0,630,MTproc,,,,,,,
RP_Personenaufg,12,23,right,female,26,,,,MT,bm,l,square.png,Bekannter,0,622,MTproc,,,,,,,
RP_Personenaufg,12,23,right,female,26,,,,MT,mm,l,triangle.png,Mutter,0,750,MTproc,,,,,,,
RP_Personenaufg,12,23,right,female,26,,,,MT,bn,s,triangle.png,Bekannter,1,984,MTproc,,,,,,,
RP_Personenaufg,12,23,right,female,26,,,,MT,in,s,triangle.png,Ich,1,728,MTproc,,,,,,,
RP_Personenaufg,12,23,right,female,26,,,,MT,bn,s,circle.png,Bekannter,1,788,MTproc,,,,,,,
RP_Personenaufg,12,23,right,female,26,,,,MT,mm,l,triangle.png,Mutter,1,1179,MTproc,,,,,,,
RP_Personenaufg,12,23,right,female,26,,,,MT,in,s,square.png,Ich,1,634,MTproc,,,,,,,
RP_Personenaufg,12,23,right,female,26,,,,MT,mn,s,square.png,Mutter,1,1369,MTproc,,,,,,,
RP_Personenaufg,12,23,right,female,26,,,,MT,bm,l,square.png,Bekannter,1,759,MTproc,,,,,,,
RP_Personenaufg,12,23,right,female,26,,,,MT,mn,s,circle.png,Mutter,1,657,MTproc,,,,,,,
RP_Personenaufg,12,23,right,female,26,,,,MT,im,l,circle.png,Ich,1,560,MTproc,,,,,,,
RP_Personenaufg,12,23,right,female,26,,,,MT,mm,l,triangle.png,Mutter,1,947,MTproc,,,,,,,
RP_Personenaufg,12,23,right,female,26,,,,MT,im,l,circle.png,Ich,1,636,MTproc,,,,,,,
RP_Personenaufg,12,23,right,female,26,,,,MT,bm,l,square.png,Bekannter,1,803,MTproc,,,,,,,
RP_Personenaufg,12,23,right,female,27,,,,RP,incomp,,,,,,RPproc,1,558,circle.png,Ich,,,Bekannter
RP_Personenaufg,12,23,right,female,27,,,,RP,comp,,,,,,RPproc,1,1230,square.png,Bekannter,,,Bekannter
RP_Personenaufg,12,23,right,female,27,,,,RP,comp,,,,,,RPproc,1,640,triangle.png,Mutter,,,Mutter
RP_Personenaufg,12,23,right,female,27,,,,RP,comp,,,,,,RPproc,1,501,circle.png,Ich,,,Ich
RP_Personenaufg,12,23,right,female,27,,,,RP,incomp,,,,,,RPproc,1,1425,square.png,Bekannter,,,Ich
RP_Personenaufg,12,23,right,female,27,,,,RP,incomp,,,,,,RPproc,1,657,square.png,Bekannter,,,Mutter
RP_Personenaufg,12,23,right,female,27,,,,RP,comp,,,,,,RPproc,1,510,triangle.png,Mutter,,,Mutter
RP_Personenaufg,12,23,right,female,27,,,,RP,incomp,,,,,,RPproc,1,680,triangle.png,Mutter,,,Ich
RP_Personenaufg,12,23,right,female,27,,,,RP,comp,,,,,,RPproc,1,386,circle.png,Ich,,,Ich
RP_Personenaufg,12,23,right,female,27,,,,RP,incomp,,,,,,RPproc,1,523,circle.png,Ich,,,Mutter
RP_Personenaufg,12,23,right,female,27,,,,RP,comp,,,,,,RPproc,1,533,square.png,Bekannter,,,Bekannter
RP_Personenaufg,12,23,right,female,27,,,,RP,incomp,,,,,,RPproc,1,743,triangle.png,Mutter,,,Bekannter
RP_Personenaufg,12,23,right,female,27,,,,RP,incomp,,,,,,RPproc,1,431,circle.png,Ich,,,Mutter
RP_Personenaufg,12,23,right,female,27,,,,RP,incomp,,,,,,RPproc,1,805,circle.png,Ich,,,Bekannter
RP_Personenaufg,12,23,right,female,27,,,,RP,incomp,,,,,,RPproc,1,659,triangle.png,Mutter,,,Bekannter
RP_Personenaufg,12,23,right,female,27,,,,RP,comp,,,,,,RPproc,1,359,circle.png,Ich,,,Ich
RP_Personenaufg,12,23,right,female,27,,,,RP,incomp,,,,,,RPproc,1,553,square.png,Bekannter,,,Ich
RP_Personenaufg,12,23,right,female,27,,,,RP,comp,,,,,,RPproc,1,458,square.png,Bekannter,,,Bekannter
RP_Personenaufg,12,23,right,female,27,,,,RP,comp,,,,,,RPproc,1,574,triangle.png,Mutter,,,Mutter
RP_Personenaufg,12,23,right,female,27,,,,RP,comp,,,,,,RPproc,1,494,circle.png,Ich,,,Ich
RP_Personenaufg,12,23,right,female,27,,,,RP,incomp,,,,,,RPproc,1,650,triangle.png,Mutter,,,Ich
RP_Personenaufg,12,23,right,female,27,,,,RP,comp,,,,,,RPproc,1,558,triangle.png,Mutter,,,Mutter
RP_Personenaufg,12,23,right,female,27,,,,RP,comp,,,,,,RPproc,1,503,square.png,Bekannter,,,Bekannter
RP_Personenaufg,12,23,right,female,27,,,,RP,incomp,,,,,,RPproc,1,738,square.png,Bekannter,,,Mutter
RP_Personenaufg,12,23,right,female,27,,,,RP,comp,,,,,,RPproc,1,419,square.png,Bekannter,,,Bekannter
RP_Personenaufg,12,23,right,female,27,,,,RP,comp,,,,,,RPproc,1,418,circle.png,Ich,,,Ich
RP_Personenaufg,12,23,right,female,27,,,,RP,incomp,,,,,,RPproc,1,657,triangle.png,Mutter,,,Bekannter
RP_Personenaufg,12,23,right,female,27,,,,RP,comp,,,,,,RPproc,1,573,triangle.png,Mutter,,,Mutter
RP_Personenaufg,12,23,right,female,27,,,,RP,incomp,,,,,,RPproc,1,469,circle.png,Ich,,,Bekannter
RP_Personenaufg,12,23,right,female,27,,,,RP,incomp,,,,,,RPproc,1,816,square.png,Bekannter,,,Mutter
RP_Personenaufg,12,23,right,female,27,,,,RP,comp,,,,,,RPproc,1,437,square.png,Bekannter,,,Bekannter
RP_Personenaufg,12,23,right,female,27,,,,RP,incomp,,,,,,RPproc,1,523,square.png,Bekannter,,,Ich
RP_Personenaufg,12,23,right,female,27,,,,RP,incomp,,,,,,RPproc,1,518,circle.png,Ich,,,Mutter
RP_Personenaufg,12,23,right,female,27,,,,RP,comp,,,,,,RPproc,1,376,circle.png,Ich,,,Ich
RP_Personenaufg,12,23,right,female,27,,,,RP,comp,,,,,,RPproc,1,505,triangle.png,Mutter,,,Mutter
RP_Personenaufg,12,23,right,female,27,,,,RP,incomp,,,,,,RPproc,1,1196,triangle.png,Mutter,,,Ich
