Participant #,Trial Type,Expectancy,Shape Association,Target Accuracy,Response Time
10,Nonmatching,Self,Friend,1,693
10,Matching,Self,Self,0,365
10,Matching,Self,Self,1,369
10,Matching,Self,Self,1,439
10,Nonmatching,Self,Self,1,625
10,Nonmatching,Self,Friend,1,916
10,Matching,Self,Self,1,568
10,Matching,Self,Self,1,456
10,Matching,Self,Friend,0,569
10,Matching,Self,Self,1,414
10,Nonmatching,Self,Self,1,979
10,Nonmatching,Self,Friend,0,416
10,Matching,Self,Self,1,453
10,Nonmatching,Self,Self,0,470
10,Matching,Self,Self,0,302
10,Nonmatching,Self,Self,1,328
10,Nonmatching,Self,Friend,0,347
10,Nonmatching,Self,Self,1,281
10,Matching,Self,Self,1,219
10,Nonmatching,Self,Self,1,296
10,Nonmatching,Self,Friend,0,233
10,Matching,Self,Friend,0,284
10,Nonmatching,Self,Self,0,256
10,Nonmatching,Self,Self,0,530
10,Nonmatching,Self,Self,0,407
10,Matching,Self,Self,1,666
10,Matching,Self,Self,1,514
10,Nonmatching,Self,Self,0,493
10,Matching,Self,Friend,1,386
10,Nonmatching,Self,Self,1,493
10,Nonmatching,Self,Self,1,451
10,Matching,Self,Self,1,651
10,Matching,Self,Self,0,655
10,Matching,Self,Friend,0,931
10,Nonmatching,Self,Self,0,749
10,Nonmatching,Self,Friend,1,394
10,Nonmatching,Self,Self,1,744
10,Nonmatching,Self,Self,1,501
10,Matching,Self,Self,1,493
10,Matching,Self,Self,1,501
10,Matching,Self,Self,1,390
10,Matching,Self,Self,1,356
10,Matching,Self,Self,1,251
10,Nonmatching,Self,Self,1,486
10,Matching,Self,Self,1,353
10,Nonmatching,Self,Self,1,383
10,Nonmatching,Self,Self,0,290
10,Nonmatching,Self,Friend,1,381
10,Matching,Self,Friend,0,862
10,Nonmatching,Self,Friend,0,474
10,Matching,Self,Self,0,615
10,Matching,Self,Self,1,497
10,Matching,Self,Friend,1,261
10,Nonmatching,Self,Friend,0,520
10,Nonmatching,Self,Self,0,587
10,Matching,Self,Self,1,579
10,Nonmatching,Self,Self,1,392
10,Nonmatching,Self,Self,0,320
10,Nonmatching,Self,Friend,0,504
10,Nonmatching,Self,Self,1,656
10,Matching,Self,Self,1,581
10,Nonmatching,Self,Self,1,794
10,Matching,Self,Self,1,755
10,Matching,Self,Self,1,369
10,Nonmatching,Self,Self,1,536
10,Matching,Self,Self,1,665
10,Matching,Self,Self,1,593
10,Nonmatching,Self,Self,1,853
10,Matching,Self,Friend,0,715
10,Nonmatching,Self,Self,0,729
10,Matching,Self,Self,1,609
10,Matching,Self,Self,1,631
10,Nonmatching,Self,Friend,1,888
10,Nonmatching,Self,Self,1,939
10,Matching,Self,Self,1,582
10,Matching,Self,Self,1,644
10,Matching,Self,Self,1,573
10,Matching,Self,Self,1,479
10,Nonmatching,Self,Self,1,610
10,Nonmatching,Self,Self,1,770
10,Nonmatching,Self,Self,1,604
10,Matching,Self,Friend,1,798
10,Nonmatching,Self,Self,1,924
10,Nonmatching,Self,Friend,0,485
10,Matching,Self,Self,1,661
10,Matching,Self,Friend,0,480
10,Nonmatching,Self,Self,0,519
10,Matching,Self,Self,1,746
10,Nonmatching,Self,Self,1,684
10,Matching,Self,Self,1,693
10,Matching,Self,Self,1,719
10,Matching,Self,Self,1,457
10,Nonmatching,Self,Self,0,407
10,Nonmatching,Self,Self,0,500
10,Matching,Self,Self,1,389
10,Nonmatching,Self,Self,0,646
10,Nonmatching,Self,Self,1,379
10,Matching,Self,Self,1,1021
10,Matching,Self,Friend,0,503
10,Matching,Self,Self,1,820
10,Nonmatching,Self,Self,0,202
10,Nonmatching,Self,Self,1,551
10,Nonmatching,Self,Friend,0,748
10,Matching,Self,Self,1,598
10,Nonmatching,Self,Self,1,673
10,Nonmatching,Self,Self,1,480
10,Matching,Self,Friend,0,497
10,Matching,Self,Friend,1,620
10,Matching,Self,Self,0,708
10,Matching,Self,Friend,0,964
10,Nonmatching,Self,Self,0,534
10,Matching,Self,Self,1,522
10,Matching,Self,Self,1,501
10,Nonmatching,Self,Self,1,1197
10,Nonmatching,Self,Friend,1,1180
10,Matching,Self,Friend,1,939
10,Nonmatching,Self,Friend,1,809
10,Matching,Self,Self,1,634
10,Nonmatching,Self,Self,0,1195
10,Matching,Self,Self,1,842
10,Nonmatching,Self,Self,1,987
10,Matching,Self,Friend,1,999
10,Matching,Self,Self,1,890
10,Matching,Self,Friend,0,730
10,Matching,Self,Self,1,630
10,Nonmatching,Self,Self,1,800
10,Nonmatching,Self,Friend,0,1135
10,Matching,Self,Self,1,952
10,Nonmatching,Self,Friend,1,883
10,Matching,Self,Self,1,745
10,Nonmatching,Self,Friend,1,1079
10,Nonmatching,Self,Self,1,1051
10,Nonmatching,Self,Self,1,669
10,Matching,Self,Self,1,639
10,Nonmatching,Self,Self,1,637
10,Nonmatching,Self,Self,1,570
10,Matching,Self,Self,1,383
10,Nonmatching,Self,Self,0,658
10,Matching,Self,Self,0,489
10,Matching,Self,Self,1,626
10,Matching,Self,Friend,0,979
10,Matching,Self,Self,1,742
10,Nonmatching,Self,Self,1,798
10,Matching,Self,Self,1,313
10,Nonmatching,Self,Self,0,509
10,Matching,Self,Self,1,483
10,Nonmatching,Self,Self,1,791
10,Nonmatching,Self,Friend,0,612
10,Nonmatching,Self,Self,0,392
10,Matching,Self,Self,1,381
10,Nonmatching,Self,Self,0,679
10,Nonmatching,Self,Self,1,833
10,Nonmatching,Self,Self,1,741
10,Nonmatching,Self,Self,1,865
10,Matching,Self,Self,1,634
10,Matching,Self,Self,1,664
10,Matching,Self,Self,1,490
10,Nonmatching,Self,Friend,1,679
10,Nonmatching,Self,Self,0,887
10,Nonmatching,Self,Self,1,510
10,Matching,Self,Friend,0,449
10,Matching,Self,Self,1,871
10,Matching,Self,Self,0,431
10,Matching,Self,Friend,0,839
10,Matching,Self,Self,1,548
10,Matching,Self,Self,1,391
10,Matching,Self,Self,1,385
10,Nonmatching,Self,Friend,1,1000
10,Matching,Self,Self,1,779
10,Matching,Self,Friend,1,1104
10,Nonmatching,Self,Self,0,506
10,Nonmatching,Self,Self,0,377
10,Matching,Self,Self,1,422
10,Matching,Self,Self,1,359
10,Nonmatching,Self,Friend,0,338
10,Nonmatching,Self,Self,1,400
10,Matching,Self,Self,1,522
10,Nonmatching,Self,Self,1,850
10,Nonmatching,Self,Friend,0,829
10,Nonmatching,Self,Self,1,415
10,Matching,Self,Self,0,231
10,Nonmatching,Self,Self,1,247
10,Nonmatching,Friend,Friend,1,605
10,Nonmatching,Friend,Self,1,565
10,Matching,Friend,Friend,0,490
10,Nonmatching,Friend,Friend,0,491
10,Nonmatching,Friend,Self,1,419
10,Nonmatching,Friend,Friend,1,919
10,Nonmatching,Friend,Self,1,797
10,Matching,Friend,Friend,0,446
10,Matching,Friend,Friend,0,465
10,Matching,Friend,Friend,1,292
10,Matching,Friend,Friend,1,359
10,Nonmatching,Friend,Friend,0,675
10,Matching,Friend,Self,1,606
10,Matching,Friend,Friend,0,514
10,Matching,Friend,Friend,1,480
10,Matching,Friend,Friend,1,306
10,Matching,Friend,Friend,1,312
10,Matching,Friend,Self,1,586
10,Matching,Friend,Friend,1,552
10,Matching,Friend,Friend,1,395
10,Matching,Friend,Friend,1,343
10,Nonmatching,Friend,Self,0,278
10,Matching,Friend,Friend,1,650
10,Nonmatching,Friend,Friend,1,812
10,Nonmatching,Friend,Self,1,694
10,Nonmatching,Friend,Friend,1,1160
10,Nonmatching,Friend,Friend,1,690
10,Nonmatching,Friend,Friend,1,360
10,Nonmatching,Friend,Self,1,1034
10,Matching,Friend,Friend,0,788
10,Nonmatching,Friend,Friend,1,810
10,Nonmatching,Friend,Friend,1,596
10,Matching,Friend,Friend,1,531
10,Matching,Friend,Friend,1,530
10,Nonmatching,Friend,Friend,1,482
10,Matching,Friend,Friend,1,553
10,Matching,Friend,Friend,1,751
10,Matching,Friend,Self,1,698
10,Matching,Friend,Self,1,357
10,Matching,Friend,Friend,0,508
10,Nonmatching,Friend,Friend,1,955
10,Nonmatching,Friend,Friend,1,430
10,Nonmatching,Friend,Friend,1,411
10,Nonmatching,Friend,Friend,1,432
10,Matching,Friend,Friend,1,954
10,Nonmatching,Friend,Friend,1,842
10,Nonmatching,Friend,Friend,1,449
10,Matching,Friend,Friend,1,541
10,Nonmatching,Friend,Friend,1,639
10,Matching,Friend,Friend,0,674
10,Matching,Friend,Friend,1,401
10,Nonmatching,Friend,Self,0,293
10,Nonmatching,Friend,Self,1,629
10,Matching,Friend,Friend,0,800
10,Matching,Friend,Friend,1,555
10,Nonmatching,Friend,Friend,1,957
10,Nonmatching,Friend,Friend,1,486
10,Nonmatching,Friend,Friend,1,459
10,Nonmatching,Friend,Self,0,530
10,Nonmatching,Friend,Friend,1,957
10,Matching,Friend,Friend,0,601
10,Nonmatching,Friend,Self,0,1035
10,Matching,Friend,Friend,1,598
10,Nonmatching,Friend,Friend,1,780
10,Nonmatching,Friend,Friend,1,662
10,Nonmatching,Friend,Friend,1,484
10,Nonmatching,Friend,Friend,1,740
10,Matching,Friend,Friend,1,619
10,Nonmatching,Friend,Friend,1,702
10,Matching,Friend,Friend,0,546
10,Matching,Friend,Friend,0,650
10,Nonmatching,Friend,Self,1,911
10,Nonmatching,Friend,Friend,1,822
10,Matching,Friend,Friend,0,430
10,Nonmatching,Friend,Self,1,463
10,Nonmatching,Friend,Friend,1,1082
10,Nonmatching,Friend,Friend,1,593
10,Nonmatching,Friend,Friend,1,754
10,Nonmatching,Friend,Friend,1,902
10,Matching,Friend,Friend,0,581
10,Nonmatching,Friend,Friend,1,763
10,Nonmatching,Friend,Friend,1,589
10,Nonmatching,Friend,Friend,1,440
10,Matching,Friend,Friend,1,588
10,Nonmatching,Friend,Friend,1,582
10,Matching,Friend,Self,1,960
10,Nonmatching,Friend,Friend,0,536
10,Matching,Friend,Friend,1,405
10,Matching,Friend,Friend,1,351
10,Matching,Friend,Friend,1,340
10,Matching,Friend,Friend,1,312
10,Matching,Friend,Friend,1,282
10,Nonmatching,Friend,Friend,0,240
10,Nonmatching,Friend,Self,0,486
10,Nonmatching,Friend,Friend,0,347
10,Matching,Friend,Friend,1,514
10,Nonmatching,Friend,Friend,0,781
10,Nonmatching,Friend,Self,0,655
10,Matching,Friend,Self,0,379
10,Matching,Friend,Friend,0,348
10,Nonmatching,Friend,Friend,1,213
10,Nonmatching,Friend,Friend,1,508
10,Matching,Friend,Self,0,388
10,Matching,Friend,Self,1,565
10,Matching,Friend,Friend,0,548
10,Matching,Friend,Friend,0,522
10,Nonmatching,Friend,Friend,1,862
10,Nonmatching,Friend,Friend,1,736
10,Matching,Friend,Friend,1,692
10,Matching,Friend,Self,1,730
10,Nonmatching,Friend,Friend,1,700
10,Nonmatching,Friend,Friend,1,660
10,Nonmatching,Friend,Friend,1,515
10,Matching,Friend,Friend,1,535
10,Matching,Friend,Friend,1,362
10,Matching,Friend,Self,1,666
10,Matching,Friend,Friend,1,726
10,Nonmatching,Friend,Friend,1,742
10,Nonmatching,Friend,Friend,1,592
10,Matching,Friend,Self,1,617
10,Nonmatching,Friend,Friend,1,754
10,Nonmatching,Friend,Friend,1,660
10,Matching,Friend,Friend,1,1051
10,Matching,Friend,Self,1,776
10,Nonmatching,Friend,Friend,1,679
10,Matching,Friend,Friend,1,653
10,Matching,Friend,Friend,1,442
10,Nonmatching,Friend,Friend,1,772
10,Matching,Friend,Friend,1,989
10,Matching,Friend,Friend,1,523
10,Matching,Friend,Self,1,680
10,Nonmatching,Friend,Friend,1,677
10,Matching,Friend,Friend,1,1155
10,Matching,Friend,Friend,1,451
10,Matching,Friend,Self,1,609
10,Matching,Friend,Friend,1,518
10,Nonmatching,Friend,Friend,0,639
10,Matching,Friend,Friend,0,888
10,Nonmatching,Friend,Friend,1,781
10,Matching,Friend,Friend,0,720
10,Matching,Friend,Self,1,613
10,Nonmatching,Friend,Self,0,436
10,Nonmatching,Friend,Friend,0,888
10,Nonmatching,Friend,Friend,0,767
10,Nonmatching,Friend,Self,0,489
10,Matching,Friend,Self,1,329
10,Nonmatching,Friend,Friend,0,409
10,Matching,Friend,Friend,1,330
10,Nonmatching,Friend,Self,0,265
10,Nonmatching,Friend,Friend,0,320
10,Nonmatching,Friend,Self,0,288
10,Nonmatching,Friend,Self,1,449
10,Matching,Friend,Self,1,644
10,Matching,Friend,Friend,1,796
10,Nonmatching,Friend,Friend,1,596
10,Matching,Friend,Self,1,864
10,Matching,Friend,Self,1,374
10,Nonmatching,Friend,Self,0,546
10,Nonmatching,Friend,Friend,1,961
10,Matching,Friend,Friend,1,854
10,Nonmatching,Friend,Friend,1,632
10,Nonmatching,Friend,Friend,1,721
10,Matching,Friend,Friend,1,956
10,Matching,Friend,Friend,1,437
10,Matching,Friend,Self,1,597
10,Nonmatching,Friend,Friend,1,619
10,Matching,Friend,Self,0,442
10,Matching,Friend,Self,1,635
10,Matching,Friend,Friend,1,741
10,Nonmatching,Friend,Self,0,558
10,Matching,Friend,Friend,1,930
10,Matching,Friend,Friend,1,594
10,Matching,Friend,Friend,1,521
10,Matching,Friend,Friend,1,532
10,Matching,Friend,Self,1,631
10,Matching,Friend,Friend,0,731
10,Nonmatching,Friend,Friend,1,1089
10,Nonmatching,Friend,Friend,1,1189
10,Nonmatching,Friend,Friend,1,546
10,Matching,Friend,Friend,1,903
10,Matching,Friend,Self,1,689
10,Nonmatching,Friend,Friend,1,780
10,Matching,Friend,Friend,1,673
10,Nonmatching,Friend,Friend,0,817
10,Nonmatching,Friend,Self,1,851
16,Nonmatching,Self,Self,1,712
16,Matching,Self,Self,1,523
16,Matching,Self,Self,1,362
16,Nonmatching,Self,Friend,1,411
16,Nonmatching,Self,Self,1,591
16,Nonmatching,Self,Self,1,554
16,Nonmatching,Self,Self,1,410
16,Nonmatching,Self,Friend,1,546
16,Nonmatching,Self,Self,1,467
16,Matching,Self,Friend,0,454
16,Matching,Self,Friend,1,583
16,Matching,Self,Self,1,525
16,Nonmatching,Self,Self,1,557
16,Nonmatching,Self,Self,1,663
16,Nonmatching,Self,Self,1,420
16,Matching,Self,Self,1,506
16,Matching,Self,Friend,1,595
16,Nonmatching,Self,Self,0,434
16,Nonmatching,Self,Self,1,629
16,Matching,Self,Self,1,523
16,Matching,Self,Friend,1,561
16,Nonmatching,Self,Self,1,620
16,Nonmatching,Self,Friend,0,636
16,Nonmatching,Self,Self,1,1047
16,Nonmatching,Self,Self,1,428
16,Nonmatching,Self,Self,1,463
16,Matching,Self,Self,1,494
16,Matching,Self,Friend,1,550
16,Matching,Self,Self,1,613
16,Matching,Self,Self,1,409
16,Nonmatching,Self,Self,1,438
16,Matching,Self,Self,1,593
16,Nonmatching,Self,Self,1,506
16,Matching,Self,Self,1,593
16,Nonmatching,Self,Self,1,580
16,Nonmatching,Self,Self,1,524
16,Matching,Self,Self,1,528
16,Matching,Self,Friend,1,626
16,Nonmatching,Self,Self,1,681
16,Matching,Self,Self,1,563
16,Matching,Self,Self,1,357
16,Nonmatching,Self,Friend,0,303
16,Matching,Self,Friend,1,842
16,Matching,Self,Self,1,555
16,Matching,Self,Self,1,517
16,Nonmatching,Self,Friend,1,604
16,Nonmatching,Self,Self,1,1009
16,Matching,Self,Self,1,604
16,Matching,Self,Friend,1,549
16,Matching,Self,Self,1,632
16,Matching,Self,Self,1,384
16,Nonmatching,Self,Self,1,473
16,Matching,Self,Self,1,518
16,Matching,Self,Friend,1,511
16,Nonmatching,Self,Self,1,1122
16,Nonmatching,Self,Friend,1,830
16,Nonmatching,Self,Self,1,714
16,Nonmatching,Self,Self,1,448
16,Nonmatching,Self,Self,1,430
16,Matching,Self,Self,1,604
16,Matching,Self,Friend,1,612
16,Matching,Self,Self,1,545
16,Matching,Self,Self,1,400
16,Matching,Self,Self,1,439
16,Nonmatching,Self,Self,1,564
16,Matching,Self,Self,1,614
16,Matching,Self,Self,1,473
16,Matching,Self,Self,1,363
16,Nonmatching,Self,Self,1,447
16,Matching,Self,Self,1,472
16,Matching,Self,Self,1,314
16,Matching,Self,Self,1,328
16,Matching,Self,Self,1,325
16,Matching,Self,Self,1,320
16,Matching,Self,Friend,0,468
16,Matching,Self,Self,1,592
16,Nonmatching,Self,Friend,1,807
16,Nonmatching,Self,Self,1,758
16,Matching,Self,Self,1,523
16,Nonmatching,Self,Friend,0,543
16,Matching,Self,Self,1,451
16,Nonmatching,Self,Self,1,1147
16,Nonmatching,Self,Self,1,709
16,Nonmatching,Self,Self,1,389
16,Nonmatching,Self,Self,1,371
16,Matching,Self,Self,1,500
16,Matching,Self,Self,1,371
16,Nonmatching,Self,Self,1,539
16,Matching,Self,Self,1,591
16,Nonmatching,Self,Self,0,424
16,Nonmatching,Self,Self,1,778
16,Nonmatching,Self,Self,1,545
16,Matching,Self,Self,1,506
16,Nonmatching,Self,Self,1,507
16,Matching,Self,Self,1,428
16,Nonmatching,Self,Friend,1,950
16,Matching,Self,Friend,1,788
16,Matching,Self,Friend,1,892
16,Matching,Self,Self,1,531
16,Matching,Self,Self,1,361
16,Matching,Self,Friend,1,863
16,Nonmatching,Self,Friend,1,657
16,Nonmatching,Self,Self,1,1012
16,Nonmatching,Self,Self,1,652
16,Matching,Self,Self,1,622
16,Matching,Self,Self,1,329
16,Matching,Self,Self,1,287
16,Matching,Self,Self,1,303
16,Nonmatching,Self,Self,1,531
16,Nonmatching,Self,Self,1,401
16,Nonmatching,Self,Self,1,377
16,Nonmatching,Self,Friend,1,1045
16,Matching,Self,Self,1,512
16,Nonmatching,Self,Self,1,666
16,Matching,Self,Friend,0,527
16,Matching,Self,Self,1,780
16,Matching,Self,Self,1,334
16,Matching,Self,Friend,1,622
16,Matching,Self,Self,1,461
16,Nonmatching,Self,Self,1,669
16,Matching,Self,Self,1,533
16,Nonmatching,Self,Self,1,624
16,Matching,Self,Self,1,434
16,Matching,Self,Self,1,405
16,Nonmatching,Self,Friend,0,264
16,Matching,Self,Self,1,597
16,Nonmatching,Self,Self,1,639
16,Nonmatching,Self,Friend,0,567
16,Nonmatching,Self,Friend,1,960
16,Nonmatching,Self,Self,1,808
16,Matching,Self,Self,1,526
16,Nonmatching,Self,Self,1,689
16,Nonmatching,Self,Self,1,517
16,Nonmatching,Self,Self,1,456
16,Nonmatching,Self,Self,1,418
16,Matching,Self,Self,1,468
16,Nonmatching,Self,Self,1,519
16,Nonmatching,Self,Friend,1,1050
16,Matching,Self,Friend,1,622
16,Matching,Self,Friend,1,489
16,Nonmatching,Self,Self,1,719
16,Matching,Self,Self,1,578
16,Nonmatching,Self,Friend,0,601
16,Nonmatching,Self,Self,1,553
16,Matching,Self,Self,1,936
16,Nonmatching,Self,Self,1,582
16,Matching,Self,Self,1,389
16,Matching,Self,Self,1,448
16,Nonmatching,Self,Self,1,472
16,Nonmatching,Self,Self,1,464
16,Nonmatching,Self,Self,1,345
16,Nonmatching,Self,Friend,0,443
16,Nonmatching,Self,Self,1,414
16,Nonmatching,Self,Self,1,300
16,Matching,Self,Self,1,475
16,Matching,Self,Self,1,596
16,Nonmatching,Self,Friend,1,880
16,Nonmatching,Self,Self,1,426
16,Matching,Self,Self,1,691
16,Nonmatching,Self,Self,1,764
16,Matching,Self,Self,1,495
16,Nonmatching,Self,Self,1,536
16,Matching,Self,Friend,1,600
16,Matching,Self,Friend,1,461
16,Nonmatching,Self,Self,1,621
16,Matching,Self,Friend,1,372
16,Matching,Self,Self,0,432
16,Nonmatching,Self,Self,1,710
16,Nonmatching,Self,Self,0,474
16,Nonmatching,Self,Self,1,614
16,Nonmatching,Self,Friend,1,749
16,Nonmatching,Self,Self,1,496
16,Matching,Self,Self,1,529
16,Nonmatching,Self,Self,1,631
16,Nonmatching,Self,Friend,0,467
16,Nonmatching,Self,Self,1,804
16,Nonmatching,Self,Self,1,420
16,Matching,Self,Self,0,285
16,Matching,Self,Self,0,388
16,Matching,Self,Self,1,450
16,Nonmatching,Self,Self,1,438
16,Matching,Self,Friend,0,415
16,Matching,Self,Self,1,885
16,Nonmatching,Self,Self,1,577
16,Matching,Self,Friend,1,677
16,Nonmatching,Self,Friend,1,641
16,Nonmatching,Self,Friend,1,673
16,Matching,Self,Self,0,507
16,Nonmatching,Self,Friend,1,634
16,Nonmatching,Self,Friend,1,403
16,Matching,Self,Self,0,321
16,Matching,Self,Self,1,832
16,Nonmatching,Self,Self,1,618
16,Nonmatching,Self,Friend,1,783
16,Matching,Self,Self,1,523
16,Nonmatching,Friend,Friend,1,703
16,Matching,Friend,Friend,1,572
16,Matching,Friend,Friend,1,460
16,Matching,Friend,Friend,1,404
16,Nonmatching,Friend,Self,1,397
16,Matching,Friend,Friend,1,371
16,Matching,Friend,Friend,1,339
16,Matching,Friend,Self,0,420
16,Nonmatching,Friend,Self,1,578
16,Matching,Friend,Friend,1,473
16,Nonmatching,Friend,Self,1,422
16,Nonmatching,Friend,Friend,0,487
16,Nonmatching,Friend,Friend,0,442
16,Nonmatching,Friend,Friend,1,533
16,Matching,Friend,Friend,1,606
16,Matching,Friend,Self,1,551
16,Nonmatching,Friend,Friend,1,511
16,Nonmatching,Friend,Friend,1,665
16,Nonmatching,Friend,Friend,1,416
16,Nonmatching,Friend,Self,0,470
16,Matching,Friend,Friend,0,611
16,Matching,Friend,Friend,1,661
16,Matching,Friend,Self,1,584
16,Matching,Friend,Friend,1,722
16,Matching,Friend,Friend,1,353
16,Nonmatching,Friend,Friend,1,624
16,Nonmatching,Friend,Friend,1,382
16,Nonmatching,Friend,Self,0,441
16,Nonmatching,Friend,Self,1,773
16,Matching,Friend,Friend,1,583
16,Matching,Friend,Friend,1,376
16,Nonmatching,Friend,Friend,1,631
16,Matching,Friend,Friend,1,644
16,Nonmatching,Friend,Friend,1,548
16,Matching,Friend,Friend,1,509
16,Nonmatching,Friend,Self,1,764
16,Matching,Friend,Friend,1,393
16,Matching,Friend,Friend,1,345
16,Matching,Friend,Self,0,419
16,Nonmatching,Friend,Friend,1,961
16,Nonmatching,Friend,Friend,1,654
16,Matching,Friend,Friend,1,622
16,Nonmatching,Friend,Friend,1,509
16,Nonmatching,Friend,Self,1,766
16,Matching,Friend,Friend,1,794
16,Nonmatching,Friend,Self,1,844
16,Nonmatching,Friend,Self,1,523
16,Matching,Friend,Friend,1,480
16,Nonmatching,Friend,Friend,1,550
16,Nonmatching,Friend,Self,1,767
16,Nonmatching,Friend,Self,1,413
16,Matching,Friend,Friend,1,496
16,Nonmatching,Friend,Friend,1,648
16,Nonmatching,Friend,Friend,1,435
16,Matching,Friend,Friend,0,390
16,Nonmatching,Friend,Friend,1,660
16,Matching,Friend,Friend,0,411
16,Matching,Friend,Self,1,877
16,Nonmatching,Friend,Friend,1,609
16,Nonmatching,Friend,Self,1,678
16,Nonmatching,Friend,Self,1,618
16,Nonmatching,Friend,Self,1,468
16,Matching,Friend,Friend,1,537
16,Nonmatching,Friend,Friend,1,499
16,Matching,Friend,Self,1,584
16,Matching,Friend,Friend,1,467
16,Nonmatching,Friend,Self,1,426
16,Nonmatching,Friend,Self,1,508
16,Matching,Friend,Friend,1,871
16,Nonmatching,Friend,Friend,1,820
16,Matching,Friend,Friend,1,572
16,Matching,Friend,Self,1,699
16,Nonmatching,Friend,Friend,1,795
16,Nonmatching,Friend,Friend,1,566
16,Nonmatching,Friend,Friend,1,468
16,Nonmatching,Friend,Friend,1,418
16,Matching,Friend,Friend,1,548
16,Matching,Friend,Friend,1,376
16,Matching,Friend,Friend,1,302
16,Nonmatching,Friend,Friend,1,418
16,Nonmatching,Friend,Friend,0,435
16,Nonmatching,Friend,Friend,1,556
16,Matching,Friend,Friend,1,517
16,Matching,Friend,Friend,1,668
16,Matching,Friend,Friend,1,435
16,Nonmatching,Friend,Friend,1,459
16,Matching,Friend,Friend,1,473
16,Matching,Friend,Friend,1,452
16,Nonmatching,Friend,Self,1,403
16,Nonmatching,Friend,Friend,1,514
16,Nonmatching,Friend,Friend,1,536
16,Nonmatching,Friend,Friend,1,408
16,Matching,Friend,Friend,1,447
16,Matching,Friend,Friend,1,379
16,Matching,Friend,Friend,1,378
16,Nonmatching,Friend,Friend,1,405
16,Nonmatching,Friend,Friend,1,470
16,Nonmatching,Friend,Friend,1,425
16,Matching,Friend,Friend,1,514
16,Matching,Friend,Friend,1,377
16,Nonmatching,Friend,Friend,1,652
16,Nonmatching,Friend,Friend,1,383
16,Nonmatching,Friend,Friend,1,395
16,Nonmatching,Friend,Self,1,783
16,Matching,Friend,Self,1,666
16,Nonmatching,Friend,Friend,1,797
16,Nonmatching,Friend,Friend,1,394
16,Matching,Friend,Friend,1,619
16,Nonmatching,Friend,Friend,1,490
16,Nonmatching,Friend,Friend,1,477
16,Matching,Friend,Friend,1,402
16,Nonmatching,Friend,Friend,1,515
16,Nonmatching,Friend,Friend,1,404
16,Matching,Friend,Friend,1,486
16,Matching,Friend,Friend,1,384
16,Matching,Friend,Self,1,635
16,Matching,Friend,Friend,1,524
16,Matching,Friend,Friend,1,318
16,Nonmatching,Friend,Friend,0,332
16,Matching,Friend,Friend,1,781
16,Nonmatching,Friend,Self,1,817
16,Matching,Friend,Friend,0,439
16,Nonmatching,Friend,Friend,1,522
16,Matching,Friend,Friend,1,489
16,Nonmatching,Friend,Friend,1,496
16,Matching,Friend,Friend,1,480
16,Matching,Friend,Self,0,470
16,Nonmatching,Friend,Self,1,889
16,Matching,Friend,Self,0,577
16,Matching,Friend,Self,1,629
16,Matching,Friend,Friend,1,570
16,Matching,Friend,Self,1,437
16,Nonmatching,Friend,Friend,0,473
16,Matching,Friend,Friend,1,726
16,Nonmatching,Friend,Friend,1,609
16,Nonmatching,Friend,Friend,0,593
16,Nonmatching,Friend,Self,1,441
16,Matching,Friend,Self,1,797
16,Matching,Friend,Friend,1,518
16,Matching,Friend,Friend,1,444
16,Matching,Friend,Friend,1,374
16,Matching,Friend,Self,0,423
16,Matching,Friend,Friend,1,397
16,Matching,Friend,Self,1,655
16,Matching,Friend,Friend,1,432
16,Matching,Friend,Friend,1,396
16,Nonmatching,Friend,Friend,1,490
16,Nonmatching,Friend,Friend,1,462
16,Nonmatching,Friend,Friend,1,390
16,Nonmatching,Friend,Friend,1,416
16,Matching,Friend,Friend,1,531
16,Matching,Friend,Self,0,417
16,Nonmatching,Friend,Friend,1,737
16,Matching,Friend,Friend,1,568
16,Nonmatching,Friend,Self,1,853
16,Nonmatching,Friend,Friend,0,472
16,Matching,Friend,Friend,1,460
16,Matching,Friend,Self,0,447
16,Matching,Friend,Self,1,1116
16,Nonmatching,Friend,Friend,1,741
16,Matching,Friend,Friend,1,448
16,Nonmatching,Friend,Friend,1,482
16,Matching,Friend,Friend,1,431
16,Matching,Friend,Friend,1,377
16,Matching,Friend,Friend,1,321
16,Matching,Friend,Self,1,556
16,Nonmatching,Friend,Friend,1,547
16,Matching,Friend,Self,0,488
16,Matching,Friend,Friend,1,385
16,Matching,Friend,Friend,1,381
16,Nonmatching,Friend,Friend,1,439
16,Nonmatching,Friend,Friend,1,430
16,Nonmatching,Friend,Friend,1,426
16,Matching,Friend,Friend,1,519
16,Matching,Friend,Self,1,519
16,Nonmatching,Friend,Friend,1,463
16,Nonmatching,Friend,Friend,1,449
16,Nonmatching,Friend,Self,0,440
16,Nonmatching,Friend,Friend,1,702
16,Nonmatching,Friend,Friend,1,417
16,Matching,Friend,Friend,1,588
16,Nonmatching,Friend,Self,1,675
16,Nonmatching,Friend,Friend,1,511
16,Nonmatching,Friend,Friend,1,403
16,Matching,Friend,Self,1,484
16,Matching,Friend,Friend,1,452
16,Matching,Friend,Self,0,566
16,Matching,Friend,Friend,1,487
16,Nonmatching,Friend,Friend,1,481
16,Matching,Friend,Self,0,476
16,Matching,Friend,Friend,1,479
20,Matching,Self,Self,1,1092
20,Matching,Self,Self,1,924
20,Nonmatching,Self,Friend,1,801
20,Matching,Self,Self,1,730
20,Matching,Self,Self,1,539
20,Nonmatching,Self,Self,1,696
20,Nonmatching,Self,Friend,1,1104
20,Matching,Self,Friend,1,970
20,Matching,Self,Self,1,641
20,Nonmatching,Self,Self,1,758
20,Matching,Self,Friend,1,873
20,Nonmatching,Self,Friend,1,759
20,Matching,Self,Self,0,708
20,Nonmatching,Self,Self,1,806
20,Matching,Self,Self,1,562
20,Nonmatching,Self,Friend,1,833
20,Matching,Self,Self,0,560
20,Matching,Self,Self,1,707
20,Matching,Self,Friend,1,658
20,Matching,Self,Self,1,671
20,Nonmatching,Self,Friend,1,697
20,Nonmatching,Self,Self,1,949
20,Nonmatching,Self,Self,1,863
20,Matching,Self,Friend,1,1002
20,Matching,Self,Self,1,658
20,Matching,Self,Self,1,537
20,Nonmatching,Self,Self,1,733
20,Matching,Self,Self,1,740
20,Nonmatching,Self,Self,1,873
20,Nonmatching,Self,Friend,0,546
20,Matching,Self,Self,1,816
20,Matching,Self,Self,1,794
20,Nonmatching,Self,Self,1,660
20,Nonmatching,Self,Self,1,808
20,Matching,Self,Self,1,624
20,Matching,Self,Self,1,984
20,Matching,Self,Friend,1,1002
20,Matching,Self,Self,1,749
20,Matching,Self,Self,1,599
20,Nonmatching,Self,Self,1,873
20,Nonmatching,Self,Friend,0,884
20,Nonmatching,Self,Friend,1,1030
20,Nonmatching,Self,Self,1,892
20,Matching,Self,Self,1,573
20,Matching,Self,Self,1,574
20,Nonmatching,Self,Self,1,825
20,Nonmatching,Self,Friend,1,846
20,Nonmatching,Self,Self,0,883
20,Nonmatching,Self,Self,1,748
20,Nonmatching,Self,Self,1,931
20,Matching,Self,Self,1,643
20,Nonmatching,Self,Self,1,673
20,Nonmatching,Self,Self,1,518
20,Matching,Self,Self,1,506
20,Matching,Self,Self,1,476
20,Nonmatching,Self,Self,1,804
20,Matching,Self,Self,1,625
20,Matching,Self,Self,1,566
20,Matching,Self,Self,1,456
20,Nonmatching,Self,Self,1,601
20,Nonmatching,Self,Self,1,630
20,Nonmatching,Self,Self,1,486
20,Nonmatching,Self,Self,1,417
20,Matching,Self,Self,1,542
20,Nonmatching,Self,Self,0,574
20,Nonmatching,Self,Self,1,638
20,Nonmatching,Self,Self,1,421
20,Matching,Self,Self,1,451
20,Nonmatching,Self,Friend,1,590
20,Nonmatching,Self,Friend,1,654
20,Nonmatching,Self,Self,0,519
20,Matching,Self,Self,0,636
20,Nonmatching,Self,Self,1,788
20,Matching,Self,Self,1,569
20,Nonmatching,Self,Friend,1,641
20,Nonmatching,Self,Self,1,975
20,Nonmatching,Self,Friend,1,938
20,Matching,Self,Self,1,677
20,Nonmatching,Self,Self,1,850
20,Nonmatching,Self,Self,1,788
20,Nonmatching,Self,Friend,1,889
20,Matching,Self,Self,1,739
20,Nonmatching,Self,Self,1,495
20,Matching,Self,Self,1,556
20,Matching,Self,Friend,0,617
20,Nonmatching,Self,Friend,1,710
20,Matching,Self,Friend,1,745
20,Nonmatching,Self,Friend,1,604
20,Matching,Self,Self,1,739
20,Matching,Self,Self,1,620
20,Matching,Self,Self,1,523
20,Matching,Self,Self,1,516
20,Matching,Self,Self,1,480
20,Nonmatching,Self,Self,1,740
20,Matching,Self,Friend,1,630
20,Matching,Self,Self,1,678
20,Matching,Self,Self,1,476
20,Matching,Self,Self,1,515
20,Matching,Self,Friend,0,660
20,Matching,Self,Friend,1,1098
20,Matching,Self,Friend,1,478
20,Matching,Self,Self,0,548
20,Matching,Self,Friend,1,667
20,Nonmatching,Self,Self,1,888
20,Nonmatching,Self,Self,1,542
20,Nonmatching,Self,Self,1,482
20,Nonmatching,Self,Friend,0,472
20,Matching,Self,Friend,1,982
20,Nonmatching,Self,Self,1,861
20,Nonmatching,Self,Self,1,582
20,Matching,Self,Friend,0,552
20,Nonmatching,Self,Self,1,778
20,Matching,Self,Self,1,531
20,Matching,Self,Friend,1,690
20,Nonmatching,Self,Self,1,900
20,Nonmatching,Self,Self,1,631
20,Matching,Self,Self,1,553
20,Matching,Self,Self,1,583
20,Matching,Self,Self,1,506
20,Nonmatching,Self,Friend,1,1066
20,Nonmatching,Self,Self,1,881
20,Nonmatching,Self,Self,1,827
20,Nonmatching,Self,Self,1,678
20,Nonmatching,Self,Self,1,878
20,Nonmatching,Self,Self,1,956
20,Matching,Self,Self,1,576
20,Nonmatching,Self,Self,1,579
20,Nonmatching,Self,Self,1,787
20,Matching,Self,Self,1,603
20,Matching,Self,Friend,1,813
20,Matching,Self,Friend,1,581
20,Matching,Self,Self,1,765
20,Nonmatching,Self,Self,1,770
20,Nonmatching,Self,Self,0,826
20,Nonmatching,Self,Friend,1,943
20,Nonmatching,Self,Friend,1,899
20,Matching,Self,Friend,1,875
20,Nonmatching,Self,Self,1,720
20,Matching,Self,Friend,1,824
20,Matching,Self,Self,1,632
20,Matching,Self,Friend,1,931
20,Matching,Self,Self,1,766
20,Matching,Self,Self,1,436
20,Nonmatching,Self,Self,1,981
20,Nonmatching,Self,Self,1,545
20,Matching,Self,Self,1,534
20,Nonmatching,Self,Friend,1,1189
20,Matching,Self,Self,1,786
20,Matching,Self,Self,1,557
20,Matching,Self,Friend,1,665
20,Nonmatching,Self,Self,0,478
20,Matching,Self,Self,1,785
20,Nonmatching,Self,Self,1,659
20,Matching,Self,Self,1,530
20,Matching,Self,Self,1,483
20,Matching,Self,Self,1,506
20,Matching,Self,Self,1,551
20,Matching,Self,Self,1,537
20,Matching,Self,Friend,1,904
20,Nonmatching,Self,Friend,1,831
20,Matching,Self,Self,1,770
20,Matching,Self,Self,1,620
20,Nonmatching,Self,Self,1,818
20,Nonmatching,Self,Self,1,854
20,Nonmatching,Self,Self,1,559
20,Matching,Self,Self,1,523
20,Matching,Self,Self,1,831
20,Nonmatching,Self,Self,1,727
20,Nonmatching,Self,Self,1,572
20,Matching,Self,Self,1,543
20,Matching,Self,Friend,1,716
20,Nonmatching,Self,Self,1,790
20,Nonmatching,Self,Self,1,540
20,Matching,Self,Self,1,772
20,Nonmatching,Self,Self,1,689
20,Nonmatching,Self,Self,1,534
20,Nonmatching,Self,Friend,1,1037
20,Matching,Self,Self,1,788
20,Matching,Self,Self,1,529
20,Matching,Self,Self,1,914
20,Matching,Self,Self,1,526
20,Nonmatching,Self,Self,1,1017
20,Nonmatching,Self,Self,1,684
20,Matching,Self,Friend,1,1000
20,Matching,Self,Friend,1,666
20,Nonmatching,Self,Self,1,729
20,Nonmatching,Self,Friend,0,654
20,Matching,Self,Self,1,808
20,Nonmatching,Self,Self,1,765
20,Nonmatching,Self,Self,1,799
20,Nonmatching,Self,Self,1,962
20,Matching,Friend,Friend,1,896
20,Nonmatching,Friend,Friend,1,718
20,Nonmatching,Friend,Friend,0,628
20,Matching,Friend,Friend,0,1111
20,Matching,Friend,Friend,1,681
20,Matching,Friend,Friend,1,508
20,Nonmatching,Friend,Friend,1,789
20,Matching,Friend,Friend,1,760
20,Nonmatching,Friend,Self,1,779
20,Nonmatching,Friend,Friend,0,755
20,Nonmatching,Friend,Friend,1,777
20,Nonmatching,Friend,Friend,1,834
20,Nonmatching,Friend,Friend,1,464
20,Nonmatching,Friend,Friend,1,468
20,Matching,Friend,Self,1,803
20,Nonmatching,Friend,Friend,1,699
20,Nonmatching,Friend,Friend,1,865
20,Matching,Friend,Friend,0,765
20,Matching,Friend,Friend,1,585
20,Matching,Friend,Friend,1,465
20,Nonmatching,Friend,Friend,1,766
20,Matching,Friend,Self,1,717
20,Nonmatching,Friend,Friend,1,777
20,Matching,Friend,Friend,1,589
20,Nonmatching,Friend,Friend,0,535
20,Matching,Friend,Friend,1,794
20,Nonmatching,Friend,Friend,1,745
20,Nonmatching,Friend,Friend,1,705
20,Nonmatching,Friend,Friend,1,545
20,Matching,Friend,Friend,1,609
20,Nonmatching,Friend,Friend,1,799
20,Matching,Friend,Friend,1,739
20,Nonmatching,Friend,Self,1,1058
20,Nonmatching,Friend,Friend,1,1003
20,Nonmatching,Friend,Self,0,585
20,Matching,Friend,Self,0,801
20,Matching,Friend,Friend,1,804
20,Nonmatching,Friend,Self,1,749
20,Nonmatching,Friend,Self,1,751
20,Nonmatching,Friend,Friend,0,541
20,Matching,Friend,Friend,1,541
20,Nonmatching,Friend,Self,1,924
20,Nonmatching,Friend,Self,1,936
20,Matching,Friend,Self,1,600
20,Nonmatching,Friend,Friend,1,700
20,Nonmatching,Friend,Friend,1,531
20,Matching,Friend,Friend,1,561
20,Nonmatching,Friend,Friend,1,737
20,Matching,Friend,Friend,1,753
20,Matching,Friend,Friend,1,541
20,Nonmatching,Friend,Friend,1,700
20,Matching,Friend,Friend,1,1033
20,Matching,Friend,Self,1,841
20,Nonmatching,Friend,Friend,1,739
20,Nonmatching,Friend,Self,1,1051
20,Matching,Friend,Friend,1,693
20,Matching,Friend,Self,1,758
20,Matching,Friend,Friend,1,940
20,Nonmatching,Friend,Friend,1,971
20,Matching,Friend,Friend,1,812
20,Nonmatching,Friend,Friend,1,716
20,Nonmatching,Friend,Self,0,585
20,Matching,Friend,Friend,1,524
20,Matching,Friend,Friend,1,460
20,Nonmatching,Friend,Self,1,725
20,Matching,Friend,Friend,1,1150
20,Nonmatching,Friend,Self,1,852
20,Matching,Friend,Friend,1,680
20,Nonmatching,Friend,Friend,1,735
20,Matching,Friend,Friend,1,676
20,Nonmatching,Friend,Friend,1,766
20,Nonmatching,Friend,Self,1,1161
20,Matching,Friend,Self,1,580
20,Matching,Friend,Friend,1,1132
20,Nonmatching,Friend,Friend,1,819
20,Nonmatching,Friend,Friend,1,948
20,Matching,Friend,Friend,1,969
20,Matching,Friend,Friend,1,751
20,Nonmatching,Friend,Friend,1,723
20,Matching,Friend,Self,1,524
20,Nonmatching,Friend,Friend,0,510
20,Matching,Friend,Friend,1,737
20,Matching,Friend,Friend,1,544
20,Matching,Friend,Friend,1,530
20,Nonmatching,Friend,Self,1,671
20,Nonmatching,Friend,Friend,1,777
20,Matching,Friend,Self,1,636
20,Nonmatching,Friend,Friend,1,700
20,Nonmatching,Friend,Friend,1,823
20,Matching,Friend,Self,1,559
20,Matching,Friend,Friend,1,791
20,Matching,Friend,Friend,1,679
20,Matching,Friend,Self,0,598
20,Matching,Friend,Self,1,623
20,Nonmatching,Friend,Self,1,704
20,Nonmatching,Friend,Friend,1,1186
20,Matching,Friend,Friend,1,982
20,Matching,Friend,Friend,1,673
20,Nonmatching,Friend,Friend,1,601
20,Nonmatching,Friend,Self,0,763
20,Matching,Friend,Friend,1,1138
20,Nonmatching,Friend,Friend,1,706
20,Nonmatching,Friend,Friend,1,854
20,Nonmatching,Friend,Self,0,658
20,Nonmatching,Friend,Self,1,721
20,Matching,Friend,Friend,1,693
20,Nonmatching,Friend,Friend,1,639
20,Nonmatching,Friend,Friend,1,674
20,Nonmatching,Friend,Friend,1,577
20,Nonmatching,Friend,Friend,1,824
20,Nonmatching,Friend,Friend,1,819
20,Matching,Friend,Friend,1,696
20,Nonmatching,Friend,Friend,1,622
20,Matching,Friend,Friend,1,677
20,Nonmatching,Friend,Friend,1,747
20,Nonmatching,Friend,Friend,1,866
20,Matching,Friend,Friend,1,640
20,Nonmatching,Friend,Self,1,884
20,Nonmatching,Friend,Friend,1,1073
20,Nonmatching,Friend,Self,1,922
20,Nonmatching,Friend,Friend,1,1028
20,Nonmatching,Friend,Friend,1,517
20,Nonmatching,Friend,Friend,1,609
20,Matching,Friend,Friend,1,478
20,Matching,Friend,Friend,1,509
20,Nonmatching,Friend,Friend,1,808
20,Nonmatching,Friend,Friend,1,867
20,Nonmatching,Friend,Self,0,618
20,Matching,Friend,Friend,1,734
20,Nonmatching,Friend,Friend,1,634
20,Nonmatching,Friend,Self,0,751
20,Nonmatching,Friend,Self,0,432
20,Matching,Friend,Self,1,985
20,Nonmatching,Friend,Friend,0,486
20,Nonmatching,Friend,Friend,1,571
20,Nonmatching,Friend,Friend,1,470
20,Matching,Friend,Friend,1,530
20,Matching,Friend,Friend,1,716
20,Nonmatching,Friend,Friend,1,670
20,Nonmatching,Friend,Self,1,828
20,Nonmatching,Friend,Friend,1,925
20,Matching,Friend,Self,1,950
20,Matching,Friend,Friend,1,916
20,Matching,Friend,Self,1,754
20,Matching,Friend,Friend,1,908
20,Matching,Friend,Friend,1,597
20,Matching,Friend,Friend,1,486
20,Nonmatching,Friend,Friend,1,1009
20,Matching,Friend,Self,1,927
20,Matching,Friend,Friend,1,709
20,Nonmatching,Friend,Friend,1,706
20,Matching,Friend,Friend,1,791
20,Matching,Friend,Friend,1,667
20,Matching,Friend,Self,1,953
20,Matching,Friend,Friend,1,629
20,Matching,Friend,Self,1,749
20,Matching,Friend,Friend,1,632
20,Matching,Friend,Self,1,647
20,Matching,Friend,Friend,1,653
20,Nonmatching,Friend,Friend,0,727
20,Nonmatching,Friend,Friend,0,657
20,Nonmatching,Friend,Friend,1,806
20,Nonmatching,Friend,Friend,1,757
20,Matching,Friend,Friend,1,639
20,Nonmatching,Friend,Friend,1,905
20,Matching,Friend,Friend,1,788
20,Nonmatching,Friend,Friend,1,662
20,Matching,Friend,Friend,1,649
20,Matching,Friend,Friend,1,672
20,Nonmatching,Friend,Friend,1,746
20,Nonmatching,Friend,Friend,0,719
20,Matching,Friend,Friend,1,717
20,Nonmatching,Friend,Friend,1,683
20,Matching,Friend,Friend,1,586
20,Matching,Friend,Friend,1,455
20,Matching,Friend,Self,0,792
20,Matching,Friend,Friend,1,867
20,Matching,Friend,Friend,1,521
20,Matching,Friend,Friend,1,475
20,Matching,Friend,Self,0,528
20,Matching,Friend,Friend,1,700
20,Matching,Friend,Self,1,722
20,Matching,Friend,Friend,1,816
5,Nonmatching,Self,Self,0,541
5,Nonmatching,Self,Self,1,671
5,Nonmatching,Self,Friend,1,777
5,Matching,Self,Friend,1,892
5,Nonmatching,Self,Self,1,592
5,Matching,Self,Self,1,508
5,Nonmatching,Self,Self,1,504
5,Matching,Self,Self,1,419
5,Matching,Self,Friend,0,602
5,Matching,Self,Self,1,732
5,Matching,Self,Friend,0,361
5,Nonmatching,Self,Friend,0,556
5,Nonmatching,Self,Self,1,840
5,Matching,Self,Self,1,1033
5,Matching,Self,Self,1,383
5,Matching,Self,Self,1,371
5,Nonmatching,Self,Self,0,342
5,Nonmatching,Self,Self,1,591
5,Matching,Self,Self,1,532
5,Nonmatching,Self,Self,1,1092
5,Matching,Self,Self,1,639
5,Matching,Self,Self,1,428
5,Matching,Self,Self,1,355
5,Matching,Self,Self,1,361
5,Matching,Self,Friend,0,494
5,Nonmatching,Self,Self,0,733
5,Nonmatching,Self,Self,1,645
5,Nonmatching,Self,Self,1,399
5,Nonmatching,Self,Self,1,378
5,Matching,Self,Self,1,504
5,Matching,Self,Self,1,352
5,Nonmatching,Self,Self,1,810
5,Matching,Self,Self,1,591
5,Nonmatching,Self,Self,1,645
5,Nonmatching,Self,Friend,0,629
5,Matching,Self,Self,1,725
5,Nonmatching,Self,Self,1,595
5,Matching,Self,Self,1,610
5,Matching,Self,Self,1,554
5,Nonmatching,Self,Friend,1,626
5,Matching,Self,Self,1,530
5,Matching,Self,Friend,0,482
5,Matching,Self,Self,1,628
5,Nonmatching,Self,Friend,1,664
5,Matching,Self,Self,1,490
5,Nonmatching,Self,Self,1,617
5,Matching,Self,Self,1,669
5,Matching,Self,Self,1,393
5,Matching,Self,Friend,1,989
5,Matching,Self,Friend,1,880
5,Nonmatching,Self,Self,1,941
5,Nonmatching,Self,Self,1,587
5,Nonmatching,Self,Friend,0,563
5,Matching,Self,Friend,0,1144
5,Nonmatching,Self,Self,0,796
5,Matching,Self,Self,1,580
5,Nonmatching,Self,Friend,0,417
5,Nonmatching,Self,Self,1,688
5,Matching,Self,Self,1,491
5,Nonmatching,Self,Friend,1,633
5,Matching,Self,Self,1,444
5,Matching,Self,Self,1,396
5,Nonmatching,Self,Self,1,562
5,Matching,Self,Self,1,501
5,Nonmatching,Self,Self,1,493
5,Nonmatching,Self,Self,1,525
5,Matching,Self,Self,1,570
5,Matching,Self,Friend,1,660
5,Matching,Self,Friend,1,431
5,Nonmatching,Self,Self,1,609
5,Matching,Self,Self,1,494
5,Nonmatching,Self,Self,0,424
5,Nonmatching,Self,Self,1,556
5,Nonmatching,Self,Friend,0,494
5,Matching,Self,Self,0,371
5,Matching,Self,Self,1,630
5,Nonmatching,Self,Self,1,675
5,Matching,Self,Self,1,515
5,Nonmatching,Self,Self,1,509
5,Nonmatching,Self,Friend,0,514
5,Nonmatching,Self,Self,1,397
5,Nonmatching,Self,Self,1,580
5,Nonmatching,Self,Self,1,438
5,Nonmatching,Self,Self,1,532
5,Nonmatching,Self,Friend,0,534
5,Nonmatching,Self,Self,1,243
5,Nonmatching,Self,Friend,1,868
5,Matching,Self,Self,1,506
5,Nonmatching,Self,Self,1,762
5,Matching,Self,Self,1,501
5,Nonmatching,Self,Self,1,529
5,Matching,Self,Friend,1,628
5,Nonmatching,Self,Self,0,747
5,Nonmatching,Self,Self,1,673
5,Nonmatching,Self,Friend,0,347
5,Matching,Self,Friend,0,546
5,Nonmatching,Self,Self,1,849
5,Nonmatching,Self,Friend,1,1104
5,Nonmatching,Self,Self,1,772
5,Nonmatching,Self,Self,1,536
5,Matching,Self,Self,1,456
5,Matching,Self,Self,1,434
5,Matching,Self,Self,1,386
5,Matching,Self,Self,1,490
5,Matching,Self,Self,1,466
5,Nonmatching,Self,Self,1,493
5,Nonmatching,Self,Self,1,591
5,Matching,Self,Self,0,388
5,Matching,Self,Self,1,609
5,Matching,Self,Self,1,434
5,Matching,Self,Self,1,394
5,Matching,Self,Friend,0,551
5,Matching,Self,Friend,1,633
5,Nonmatching,Self,Self,1,610
5,Nonmatching,Self,Self,1,452
5,Nonmatching,Self,Self,1,393
5,Nonmatching,Self,Friend,0,494
5,Nonmatching,Self,Friend,1,369
5,Nonmatching,Self,Self,1,1145
5,Nonmatching,Self,Friend,1,746
5,Nonmatching,Self,Self,0,680
5,Matching,Self,Friend,0,667
5,Matching,Self,Self,1,743
5,Nonmatching,Self,Self,1,556
5,Nonmatching,Self,Self,1,435
5,Matching,Self,Self,1,687
5,Matching,Self,Self,1,466
5,Matching,Self,Friend,0,519
5,Nonmatching,Self,Friend,1,703
5,Nonmatching,Self,Self,0,498
5,Matching,Self,Self,1,593
5,Nonmatching,Self,Self,1,637
5,Nonmatching,Self,Friend,0,472
5,Matching,Self,Self,0,317
5,Nonmatching,Self,Self,0,542
5,Nonmatching,Self,Self,0,316
5,Matching,Self,Self,0,909
5,Nonmatching,Self,Self,1,429
5,Matching,Self,Self,1,759
5,Nonmatching,Self,Self,1,463
5,Matching,Self,Self,1,439
5,Nonmatching,Self,Self,1,458
5,Matching,Self,Self,1,364
5,Nonmatching,Self,Self,1,529
5,Matching,Self,Self,1,397
5,Matching,Self,Self,1,548
5,Matching,Self,Self,1,456
5,Matching,Self,Self,1,419
5,Nonmatching,Self,Self,1,566
5,Matching,Self,Self,1,622
5,Matching,Self,Self,1,434
5,Nonmatching,Self,Friend,0,651
5,Matching,Self,Self,0,671
5,Matching,Self,Self,1,552
5,Nonmatching,Self,Friend,1,1070
5,Matching,Self,Friend,0,673
5,Nonmatching,Self,Self,1,1057
5,Matching,Self,Self,0,446
5,Matching,Self,Friend,1,914
5,Matching,Self,Friend,1,520
5,Matching,Self,Friend,1,469
5,Nonmatching,Self,Self,1,739
5,Matching,Self,Friend,1,472
5,Nonmatching,Self,Friend,1,747
5,Matching,Self,Self,1,444
5,Nonmatching,Self,Self,1,789
5,Matching,Self,Self,1,651
5,Nonmatching,Self,Friend,1,679
5,Nonmatching,Self,Self,0,463
5,Nonmatching,Self,Self,1,738
5,Nonmatching,Self,Self,1,598
5,Matching,Self,Self,1,827
5,Matching,Self,Self,1,433
5,Matching,Self,Self,1,461
5,Nonmatching,Self,Self,1,697
5,Nonmatching,Self,Self,1,818
5,Matching,Self,Self,1,692
5,Nonmatching,Self,Friend,1,681
5,Matching,Self,Self,0,471
5,Nonmatching,Self,Friend,1,923
5,Matching,Self,Self,1,348
5,Matching,Self,Self,1,380
5,Nonmatching,Self,Self,0,302
5,Nonmatching,Self,Self,1,461
5,Matching,Self,Friend,0,563
5,Nonmatching,Self,Self,0,538
5,Matching,Self,Self,0,256
5,Matching,Self,Friend,0,724
5,Nonmatching,Self,Self,0,422
5,Matching,Self,Friend,0,426
5,Matching,Self,Self,1,498
5,Matching,Self,Friend,0,611
5,Nonmatching,Friend,Friend,1,546
5,Matching,Friend,Friend,0,434
5,Matching,Friend,Friend,1,482
5,Nonmatching,Friend,Friend,1,521
5,Matching,Friend,Self,1,664
5,Nonmatching,Friend,Friend,1,835
5,Nonmatching,Friend,Friend,1,607
5,Nonmatching,Friend,Self,0,492
5,Nonmatching,Friend,Friend,1,1080
5,Matching,Friend,Friend,1,736
5,Matching,Friend,Friend,1,455
5,Matching,Friend,Self,0,460
5,Nonmatching,Friend,Self,1,584
5,Nonmatching,Friend,Friend,0,501
5,Nonmatching,Friend,Friend,1,477
5,Matching,Friend,Self,1,1080
5,Nonmatching,Friend,Self,1,838
5,Matching,Friend,Friend,1,635
5,Nonmatching,Friend,Friend,1,535
5,Matching,Friend,Friend,1,681
5,Nonmatching,Friend,Friend,1,566
5,Nonmatching,Friend,Friend,1,882
5,Nonmatching,Friend,Self,0,678
5,Matching,Friend,Self,0,462
5,Matching,Friend,Friend,1,483
5,Nonmatching,Friend,Friend,0,1029
5,Nonmatching,Friend,Self,1,661
5,Nonmatching,Friend,Friend,1,804
5,Nonmatching,Friend,Friend,1,485
5,Matching,Friend,Friend,1,928
5,Matching,Friend,Self,0,515
5,Matching,Friend,Friend,1,637
5,Matching,Friend,Friend,1,499
5,Matching,Friend,Friend,1,619
5,Matching,Friend,Self,1,938
5,Matching,Friend,Friend,1,478
5,Matching,Friend,Friend,1,642
5,Matching,Friend,Friend,1,463
5,Nonmatching,Friend,Self,1,703
5,Nonmatching,Friend,Friend,1,937
5,Matching,Friend,Friend,1,505
5,Nonmatching,Friend,Friend,1,672
5,Matching,Friend,Friend,1,577
5,Matching,Friend,Friend,1,594
5,Matching,Friend,Friend,1,490
5,Nonmatching,Friend,Friend,1,635
5,Nonmatching,Friend,Friend,1,492
5,Matching,Friend,Self,0,659
5,Matching,Friend,Self,1,707
5,Nonmatching,Friend,Friend,1,537
5,Nonmatching,Friend,Friend,1,478
5,Nonmatching,Friend,Friend,1,480
5,Nonmatching,Friend,Friend,1,508
5,Nonmatching,Friend,Friend,1,820
5,Nonmatching,Friend,Self,0,560
5,Matching,Friend,Self,1,493
5,Matching,Friend,Friend,0,515
5,Nonmatching,Friend,Friend,0,724
5,Matching,Friend,Friend,1,497
5,Nonmatching,Friend,Friend,1,584
5,Nonmatching,Friend,Friend,1,512
5,Matching,Friend,Friend,0,421
5,Nonmatching,Friend,Friend,0,242
5,Matching,Friend,Friend,1,788
5,Nonmatching,Friend,Friend,1,559
5,Matching,Friend,Friend,0,648
5,Nonmatching,Friend,Friend,1,825
5,Matching,Friend,Self,1,394
5,Matching,Friend,Friend,1,659
5,Matching,Friend,Friend,1,507
5,Matching,Friend,Friend,1,439
5,Matching,Friend,Friend,1,411
5,Matching,Friend,Friend,1,364
5,Matching,Friend,Friend,1,369
5,Nonmatching,Friend,Friend,1,502
5,Nonmatching,Friend,Friend,1,559
5,Matching,Friend,Self,1,502
5,Nonmatching,Friend,Friend,1,572
5,Matching,Friend,Friend,1,647
5,Matching,Friend,Friend,1,447
5,Nonmatching,Friend,Self,1,894
5,Nonmatching,Friend,Friend,1,724
5,Matching,Friend,Friend,1,853
5,Nonmatching,Friend,Friend,1,491
5,Matching,Friend,Friend,1,1040
5,Nonmatching,Friend,Friend,1,648
5,Nonmatching,Friend,Self,0,587
5,Nonmatching,Friend,Friend,1,892
5,Matching,Friend,Friend,1,654
5,Nonmatching,Friend,Friend,1,669
5,Nonmatching,Friend,Friend,1,574
5,Matching,Friend,Self,1,578
5,Nonmatching,Friend,Friend,1,547
5,Nonmatching,Friend,Self,0,470
5,Matching,Friend,Friend,1,612
5,Nonmatching,Friend,Friend,1,571
5,Matching,Friend,Friend,1,699
5,Nonmatching,Friend,Self,1,654
5,Matching,Friend,Friend,1,621
5,Nonmatching,Friend,Friend,1,732
5,Matching,Friend,Friend,1,483
5,Nonmatching,Friend,Self,1,488
5,Nonmatching,Friend,Self,1,602
5,Nonmatching,Friend,Friend,0,586
5,Matching,Friend,Friend,1,677
5,Nonmatching,Friend,Friend,1,677
5,Nonmatching,Friend,Friend,1,604
5,Nonmatching,Friend,Friend,1,603
5,Matching,Friend,Friend,1,595
5,Nonmatching,Friend,Friend,1,575
5,Matching,Friend,Self,1,857
5,Nonmatching,Friend,Friend,1,625
5,Matching,Friend,Friend,0,464
5,Matching,Friend,Friend,1,540
5,Matching,Friend,Self,0,518
5,Nonmatching,Friend,Friend,1,828
5,Matching,Friend,Friend,1,665
5,Matching,Friend,Friend,1,465
5,Matching,Friend,Friend,1,386
5,Matching,Friend,Self,0,443
5,Nonmatching,Friend,Self,0,492
5,Nonmatching,Friend,Friend,0,420
5,Nonmatching,Friend,Friend,1,537
5,Matching,Friend,Self,1,738
5,Nonmatching,Friend,Self,0,580
5,Nonmatching,Friend,Friend,1,699
5,Nonmatching,Friend,Friend,1,522
5,Nonmatching,Friend,Self,0,616
5,Nonmatching,Friend,Self,1,698
5,Nonmatching,Friend,Friend,1,731
5,Nonmatching,Friend,Friend,1,537
5,Matching,Friend,Friend,1,699
5,Nonmatching,Friend,Friend,1,629
5,Nonmatching,Friend,Friend,0,540
5,Nonmatching,Friend,Friend,0,624
5,Matching,Friend,Friend,1,709
5,Matching,Friend,Self,0,479
5,Matching,Friend,Friend,1,705
5,Nonmatching,Friend,Friend,0,617
5,Matching,Friend,Self,1,577
5,Matching,Friend,Friend,0,539
5,Matching,Friend,Friend,1,595
5,Nonmatching,Friend,Friend,1,590
5,Matching,Friend,Self,1,422
5,Nonmatching,Friend,Friend,0,414
5,Matching,Friend,Friend,1,636
5,Nonmatching,Friend,Friend,1,559
5,Matching,Friend,Self,1,315
5,Matching,Friend,Self,1,294
5,Matching,Friend,Friend,1,560
5,Nonmatching,Friend,Friend,1,267
5,Nonmatching,Friend,Self,0,271
5,Matching,Friend,Self,1,521
5,Nonmatching,Friend,Friend,1,451
5,Nonmatching,Friend,Friend,0,487
5,Matching,Friend,Friend,1,836
5,Nonmatching,Friend,Self,1,499
5,Matching,Friend,Friend,1,285
5,Nonmatching,Friend,Friend,1,579
5,Nonmatching,Friend,Friend,1,689
5,Matching,Friend,Friend,1,611
5,Matching,Friend,Self,1,657
5,Matching,Friend,Friend,1,575
5,Nonmatching,Friend,Friend,1,579
5,Matching,Friend,Friend,1,490
5,Matching,Friend,Friend,1,445
5,Matching,Friend,Friend,1,431
5,Matching,Friend,Self,0,502
5,Nonmatching,Friend,Friend,1,677
5,Nonmatching,Friend,Self,0,483
5,Matching,Friend,Friend,1,718
5,Nonmatching,Friend,Self,0,596
5,Matching,Friend,Friend,1,592
5,Nonmatching,Friend,Friend,1,582
5,Matching,Friend,Friend,1,652
5,Matching,Friend,Friend,1,661
5,Matching,Friend,Self,0,655
5,Nonmatching,Friend,Friend,1,839
5,Matching,Friend,Friend,1,427
5,Nonmatching,Friend,Self,1,579
5,Matching,Friend,Friend,1,604
5,Nonmatching,Friend,Self,1,713
5,Nonmatching,Friend,Self,1,506
5,Matching,Friend,Friend,1,522
5,Matching,Friend,Friend,1,467
5,Matching,Friend,Friend,1,502
5,Nonmatching,Friend,Friend,1,656
5,Matching,Friend,Friend,1,543
5,Matching,Friend,Friend,1,402
5,Matching,Friend,Friend,1,424
5,Nonmatching,Friend,Friend,1,569
9,Nonmatching,Self,Self,1,611
9,Matching,Self,Self,1,435
9,Matching,Self,Friend,0,604
9,Matching,Self,Self,1,586
9,Matching,Self,Self,1,335
9,Nonmatching,Self,Friend,1,619
9,Matching,Self,Self,1,417
9,Nonmatching,Self,Friend,1,671
9,Matching,Self,Friend,1,993
9,Matching,Self,Self,1,685
9,Matching,Self,Self,1,529
9,Matching,Self,Self,1,386
9,Nonmatching,Self,Self,1,571
9,Nonmatching,Self,Friend,0,508
9,Matching,Self,Self,1,756
9,Matching,Self,Self,1,555
9,Matching,Self,Self,1,476
9,Nonmatching,Self,Self,1,547
9,Matching,Self,Friend,1,721
9,Nonmatching,Self,Self,1,774
9,Nonmatching,Self,Self,1,432
9,Nonmatching,Self,Self,1,460
9,Matching,Self,Self,1,562
9,Matching,Self,Friend,1,659
9,Nonmatching,Self,Self,1,585
9,Matching,Self,Self,0,588
9,Nonmatching,Self,Self,1,1018
9,Matching,Self,Friend,1,881
9,Nonmatching,Self,Self,1,660
9,Nonmatching,Self,Self,1,579
9,Nonmatching,Self,Friend,0,420
9,Matching,Self,Self,1,829
9,Matching,Self,Self,1,597
9,Nonmatching,Self,Friend,1,488
9,Matching,Self,Self,1,683
9,Matching,Self,Self,1,899
9,Matching,Self,Self,1,718
9,Nonmatching,Self,Self,1,655
9,Nonmatching,Self,Self,1,477
9,Nonmatching,Self,Self,1,409
9,Nonmatching,Self,Self,1,455
9,Nonmatching,Self,Friend,1,785
9,Matching,Self,Self,1,407
9,Matching,Self,Self,1,345
9,Matching,Self,Self,1,346
9,Nonmatching,Self,Self,1,541
9,Nonmatching,Self,Friend,1,944
9,Nonmatching,Self,Self,1,633
9,Matching,Self,Self,1,565
9,Nonmatching,Self,Self,1,585
9,Matching,Self,Self,1,426
9,Matching,Self,Self,1,493
9,Matching,Self,Self,1,361
9,Nonmatching,Self,Self,1,475
9,Nonmatching,Self,Self,1,861
9,Matching,Self,Self,1,338
9,Matching,Self,Self,1,347
9,Nonmatching,Self,Self,1,417
9,Matching,Self,Self,1,392
9,Matching,Self,Self,1,301
9,Matching,Self,Friend,0,460
9,Nonmatching,Self,Self,1,827
9,Nonmatching,Self,Self,1,549
9,Matching,Self,Self,1,499
9,Matching,Self,Self,1,388
9,Matching,Self,Friend,1,890
9,Matching,Self,Self,1,477
9,Nonmatching,Self,Self,1,889
9,Matching,Self,Self,1,495
9,Matching,Self,Friend,0,536
9,Matching,Self,Self,1,417
9,Nonmatching,Self,Self,1,554
9,Matching,Self,Self,1,678
9,Matching,Self,Friend,1,599
9,Nonmatching,Self,Self,1,593
9,Nonmatching,Self,Self,1,721
9,Nonmatching,Self,Self,1,471
9,Matching,Self,Self,1,508
9,Matching,Self,Self,1,448
9,Nonmatching,Self,Self,1,527
9,Nonmatching,Self,Self,1,515
9,Matching,Self,Self,1,358
9,Matching,Self,Self,1,348
9,Matching,Self,Self,1,378
9,Nonmatching,Self,Self,1,477
9,Matching,Self,Friend,0,444
9,Matching,Self,Self,1,506
9,Matching,Self,Friend,1,469
9,Nonmatching,Self,Self,1,620
9,Matching,Self,Self,1,480
9,Nonmatching,Self,Self,1,527
9,Nonmatching,Self,Friend,0,448
9,Matching,Self,Friend,1,778
9,Nonmatching,Self,Self,1,665
9,Matching,Self,Self,1,546
9,Nonmatching,Self,Friend,1,743
9,Nonmatching,Self,Self,1,678
9,Nonmatching,Self,Self,1,556
9,Matching,Self,Friend,1,882
9,Matching,Self,Friend,1,664
9,Matching,Self,Friend,1,528
9,Matching,Self,Self,0,444
9,Nonmatching,Self,Friend,1,723
9,Matching,Self,Self,1,619
9,Matching,Self,Friend,0,670
9,Matching,Self,Friend,1,708
9,Matching,Self,Friend,1,398
9,Matching,Self,Friend,1,339
9,Nonmatching,Self,Self,1,723
9,Matching,Self,Self,1,495
9,Nonmatching,Self,Friend,0,450
9,Nonmatching,Self,Self,1,645
9,Nonmatching,Self,Self,1,521
9,Matching,Self,Self,0,371
9,Nonmatching,Self,Friend,1,831
9,Matching,Self,Friend,1,719
9,Matching,Self,Self,1,645
9,Nonmatching,Self,Friend,1,720
9,Nonmatching,Self,Self,1,506
9,Matching,Self,Self,1,786
9,Nonmatching,Self,Self,1,671
9,Matching,Self,Self,1,619
9,Nonmatching,Self,Self,1,462
9,Nonmatching,Self,Self,1,453
9,Nonmatching,Self,Self,1,379
9,Nonmatching,Self,Friend,0,411
9,Matching,Self,Self,1,679
9,Matching,Self,Self,1,393
9,Nonmatching,Self,Self,1,460
9,Nonmatching,Self,Friend,1,731
9,Nonmatching,Self,Self,1,1031
9,Nonmatching,Self,Self,1,655
9,Nonmatching,Self,Friend,1,693
9,Matching,Self,Self,1,513
9,Matching,Self,Self,1,544
9,Matching,Self,Self,1,463
9,Matching,Self,Self,1,427
9,Matching,Self,Self,1,397
9,Nonmatching,Self,Self,1,539
9,Matching,Self,Self,1,372
9,Nonmatching,Self,Self,1,528
9,Nonmatching,Self,Self,1,549
9,Nonmatching,Self,Friend,1,728
9,Nonmatching,Self,Friend,1,546
9,Matching,Self,Self,1,605
9,Matching,Self,Friend,0,520
9,Nonmatching,Self,Self,1,397
9,Matching,Self,Self,1,559
9,Nonmatching,Self,Friend,1,728
9,Matching,Self,Self,1,457
9,Matching,Self,Self,1,407
9,Matching,Self,Self,1,342
9,Nonmatching,Self,Self,1,483
9,Matching,Self,Friend,1,766
9,Nonmatching,Self,Self,1,764
9,Matching,Self,Friend,1,755
9,Matching,Self,Self,1,635
9,Matching,Self,Self,1,610
9,Matching,Self,Self,1,419
9,Matching,Self,Self,1,323
9,Nonmatching,Self,Self,0,267
9,Matching,Self,Self,1,719
9,Nonmatching,Self,Self,1,717
9,Nonmatching,Self,Self,1,603
9,Nonmatching,Self,Self,1,349
9,Nonmatching,Self,Self,1,334
9,Matching,Self,Self,1,492
9,Nonmatching,Self,Self,1,431
9,Matching,Self,Self,1,477
9,Matching,Self,Self,1,487
9,Nonmatching,Self,Self,1,475
9,Nonmatching,Self,Self,1,551
9,Nonmatching,Self,Self,1,398
9,Nonmatching,Self,Friend,0,382
9,Nonmatching,Self,Self,1,569
9,Nonmatching,Self,Self,1,395
9,Matching,Self,Self,1,417
9,Nonmatching,Friend,Friend,1,685
9,Nonmatching,Friend,Friend,1,368
9,Matching,Friend,Friend,1,638
9,Matching,Friend,Friend,1,657
9,Nonmatching,Friend,Friend,1,440
9,Nonmatching,Friend,Friend,1,546
9,Nonmatching,Friend,Friend,1,443
9,Matching,Friend,Friend,1,517
9,Nonmatching,Friend,Friend,1,422
9,Matching,Friend,Friend,1,497
9,Nonmatching,Friend,Friend,1,359
9,Nonmatching,Friend,Friend,1,567
9,Matching,Friend,Friend,1,352
9,Matching,Friend,Friend,0,474
9,Matching,Friend,Self,0,492
9,Matching,Friend,Self,1,612
9,Nonmatching,Friend,Friend,1,742
9,Matching,Friend,Friend,1,1047
9,Nonmatching,Friend,Friend,1,631
9,Nonmatching,Friend,Friend,1,770
9,Nonmatching,Friend,Friend,1,381
9,Nonmatching,Friend,Friend,1,309
9,Matching,Friend,Friend,1,660
9,Matching,Friend,Friend,0,420
9,Matching,Friend,Friend,1,555
9,Matching,Friend,Friend,1,378
9,Matching,Friend,Friend,1,366
9,Nonmatching,Friend,Friend,1,460
9,Matching,Friend,Friend,1,389
9,Matching,Friend,Friend,1,275
9,Nonmatching,Friend,Self,1,409
9,Nonmatching,Friend,Friend,0,648
9,Nonmatching,Friend,Self,1,811
9,Matching,Friend,Self,1,621
9,Matching,Friend,Friend,0,519
9,Matching,Friend,Friend,0,314
9,Nonmatching,Friend,Friend,0,339
9,Nonmatching,Friend,Friend,1,695
9,Matching,Friend,Friend,0,378
9,Nonmatching,Friend,Friend,1,694
9,Nonmatching,Friend,Friend,1,361
9,Nonmatching,Friend,Self,1,396
9,Matching,Friend,Friend,1,808
9,Matching,Friend,Friend,1,390
9,Matching,Friend,Friend,1,256
9,Nonmatching,Friend,Friend,1,364
9,Nonmatching,Friend,Friend,1,545
9,Matching,Friend,Friend,1,526
9,Matching,Friend,Friend,0,450
9,Matching,Friend,Friend,0,504
9,Nonmatching,Friend,Self,1,373
9,Matching,Friend,Friend,0,274
9,Matching,Friend,Friend,1,351
9,Nonmatching,Friend,Friend,0,515
9,Matching,Friend,Friend,0,463
9,Nonmatching,Friend,Friend,1,829
9,Nonmatching,Friend,Friend,1,468
9,Matching,Friend,Self,1,606
9,Nonmatching,Friend,Friend,1,415
9,Matching,Friend,Friend,0,308
9,Matching,Friend,Friend,0,326
9,Nonmatching,Friend,Friend,1,270
9,Nonmatching,Friend,Friend,1,384
9,Nonmatching,Friend,Friend,1,345
9,Nonmatching,Friend,Friend,1,324
9,Nonmatching,Friend,Friend,1,350
9,Matching,Friend,Friend,0,262
9,Nonmatching,Friend,Self,1,952
9,Matching,Friend,Friend,1,717
9,Matching,Friend,Friend,1,375
9,Matching,Friend,Friend,1,574
9,Matching,Friend,Self,0,459
9,Matching,Friend,Friend,1,712
9,Matching,Friend,Self,1,498
9,Matching,Friend,Friend,0,579
9,Nonmatching,Friend,Friend,1,689
9,Nonmatching,Friend,Self,0,615
9,Matching,Friend,Friend,1,846
9,Nonmatching,Friend,Friend,1,637
9,Nonmatching,Friend,Friend,1,689
9,Nonmatching,Friend,Friend,1,359
9,Matching,Friend,Friend,1,471
9,Matching,Friend,Self,0,428
9,Nonmatching,Friend,Friend,1,902
9,Nonmatching,Friend,Friend,1,634
9,Nonmatching,Friend,Friend,1,361
9,Nonmatching,Friend,Friend,1,386
9,Nonmatching,Friend,Friend,1,307
9,Matching,Friend,Friend,1,479
9,Nonmatching,Friend,Friend,1,565
9,Nonmatching,Friend,Friend,1,329
9,Matching,Friend,Friend,1,553
9,Matching,Friend,Friend,1,914
9,Nonmatching,Friend,Friend,1,482
9,Matching,Friend,Self,1,789
9,Matching,Friend,Friend,0,424
9,Matching,Friend,Friend,1,772
9,Matching,Friend,Friend,1,403
9,Matching,Friend,Self,0,399
9,Matching,Friend,Friend,1,513
9,Nonmatching,Friend,Friend,1,586
9,Matching,Friend,Friend,1,845
9,Nonmatching,Friend,Self,1,684
9,Nonmatching,Friend,Friend,0,584
9,Matching,Friend,Friend,0,602
9,Matching,Friend,Friend,1,602
9,Nonmatching,Friend,Friend,1,523
9,Nonmatching,Friend,Friend,1,470
9,Nonmatching,Friend,Self,0,581
9,Nonmatching,Friend,Self,1,936
9,Matching,Friend,Self,0,311
9,Matching,Friend,Friend,1,823
9,Nonmatching,Friend,Friend,1,467
9,Nonmatching,Friend,Self,1,803
9,Matching,Friend,Self,0,499
9,Nonmatching,Friend,Self,1,780
9,Matching,Friend,Self,1,723
9,Matching,Friend,Friend,1,651
9,Matching,Friend,Friend,1,435
9,Matching,Friend,Self,1,601
9,Nonmatching,Friend,Friend,1,700
9,Matching,Friend,Self,1,683
9,Matching,Friend,Friend,0,669
9,Matching,Friend,Self,1,639
9,Matching,Friend,Friend,0,501
9,Matching,Friend,Friend,1,731
9,Matching,Friend,Self,1,732
9,Matching,Friend,Self,1,477
9,Nonmatching,Friend,Friend,1,711
9,Matching,Friend,Friend,0,615
9,Matching,Friend,Friend,1,393
9,Matching,Friend,Friend,1,394
9,Nonmatching,Friend,Friend,0,383
9,Matching,Friend,Self,0,471
9,Matching,Friend,Friend,1,714
9,Matching,Friend,Self,0,445
9,Nonmatching,Friend,Self,1,939
9,Matching,Friend,Friend,1,521
9,Matching,Friend,Self,1,827
9,Matching,Friend,Friend,1,597
9,Nonmatching,Friend,Friend,0,441
9,Nonmatching,Friend,Self,1,687
9,Matching,Friend,Friend,1,590
9,Nonmatching,Friend,Friend,0,445
9,Nonmatching,Friend,Friend,0,397
9,Matching,Friend,Friend,0,762
9,Nonmatching,Friend,Self,1,957
9,Nonmatching,Friend,Friend,0,668
9,Nonmatching,Friend,Friend,1,814
9,Matching,Friend,Friend,0,390
9,Nonmatching,Friend,Friend,1,588
9,Nonmatching,Friend,Friend,1,338
9,Matching,Friend,Friend,1,463
9,Matching,Friend,Friend,0,750
9,Matching,Friend,Friend,1,1072
9,Nonmatching,Friend,Self,1,457
9,Matching,Friend,Friend,1,746
9,Matching,Friend,Self,0,515
9,Nonmatching,Friend,Friend,1,767
9,Matching,Friend,Self,1,589
9,Nonmatching,Friend,Self,1,501
9,Nonmatching,Friend,Friend,0,613
9,Nonmatching,Friend,Self,1,540
9,Matching,Friend,Self,1,501
9,Nonmatching,Friend,Self,1,503
9,Matching,Friend,Friend,1,610
9,Nonmatching,Friend,Friend,1,656
15,Nonmatching,Self,Self,1,971
15,Nonmatching,Self,Self,1,654
15,Matching,Self,Friend,0,720
15,Matching,Self,Self,1,477
15,Nonmatching,Self,Self,1,641
15,Nonmatching,Self,Self,1,686
15,Matching,Self,Self,1,485
15,Nonmatching,Self,Friend,1,824
15,Matching,Self,Friend,1,540
15,Matching,Self,Friend,0,615
15,Nonmatching,Self,Friend,0,592
15,Matching,Self,Self,1,419
15,Matching,Self,Self,1,886
15,Matching,Self,Self,1,482
15,Nonmatching,Self,Self,1,579
15,Nonmatching,Self,Self,1,819
15,Matching,Self,Friend,1,648
15,Matching,Self,Self,1,643
15,Nonmatching,Self,Friend,0,400
15,Matching,Self,Self,1,884
15,Nonmatching,Self,Friend,1,503
15,Matching,Self,Friend,1,948
15,Matching,Self,Self,1,665
15,Nonmatching,Self,Self,1,681
15,Nonmatching,Self,Friend,0,454
15,Nonmatching,Self,Friend,1,342
15,Nonmatching,Self,Self,0,698
15,Nonmatching,Self,Self,0,671
15,Nonmatching,Self,Self,0,823
15,Matching,Self,Self,1,424
15,Nonmatching,Self,Self,1,760
15,Nonmatching,Self,Self,1,637
15,Matching,Self,Self,1,517
15,Nonmatching,Self,Self,1,461
15,Matching,Self,Self,1,379
15,Nonmatching,Self,Friend,0,631
15,Nonmatching,Self,Friend,0,454
15,Nonmatching,Self,Self,0,234
15,Nonmatching,Self,Self,1,506
15,Matching,Self,Self,1,527
15,Matching,Self,Self,1,463
15,Matching,Self,Friend,0,504
15,Matching,Self,Self,1,420
15,Nonmatching,Self,Self,1,761
15,Nonmatching,Self,Self,0,573
15,Matching,Self,Self,1,555
15,Nonmatching,Self,Self,1,939
15,Nonmatching,Self,Friend,0,561
15,Matching,Self,Self,1,753
15,Nonmatching,Self,Self,1,625
15,Matching,Self,Self,1,733
15,Nonmatching,Self,Friend,1,543
15,Matching,Self,Self,1,568
15,Nonmatching,Self,Self,1,557
15,Nonmatching,Self,Self,1,675
15,Matching,Self,Self,1,557
15,Nonmatching,Self,Friend,1,692
15,Matching,Self,Self,1,633
15,Nonmatching,Self,Friend,1,623
15,Matching,Self,Self,1,528
15,Nonmatching,Self,Self,1,903
15,Matching,Self,Self,1,405
15,Matching,Self,Friend,0,684
15,Nonmatching,Self,Friend,1,1041
15,Matching,Self,Self,1,601
15,Nonmatching,Self,Self,1,619
15,Nonmatching,Self,Self,1,413
15,Nonmatching,Self,Friend,0,566
15,Matching,Self,Self,0,1052
15,Nonmatching,Self,Self,1,608
15,Nonmatching,Self,Self,1,638
15,Matching,Self,Self,1,612
15,Matching,Self,Friend,0,690
15,Nonmatching,Self,Friend,1,843
15,Nonmatching,Self,Self,0,260
15,Nonmatching,Self,Self,1,535
15,Nonmatching,Self,Self,1,306
15,Matching,Self,Self,1,558
15,Matching,Self,Self,1,527
15,Nonmatching,Self,Self,1,635
15,Matching,Self,Self,1,540
15,Nonmatching,Self,Self,0,629
15,Matching,Self,Self,1,818
15,Nonmatching,Self,Self,1,332
15,Matching,Self,Self,1,503
15,Matching,Self,Self,0,674
15,Matching,Self,Self,1,653
15,Nonmatching,Self,Self,0,434
15,Nonmatching,Self,Self,1,294
15,Nonmatching,Self,Self,1,690
15,Matching,Self,Self,1,360
15,Nonmatching,Self,Self,0,354
15,Nonmatching,Self,Self,1,553
15,Matching,Self,Friend,1,261
15,Nonmatching,Self,Friend,1,653
15,Nonmatching,Self,Friend,1,628
15,Nonmatching,Self,Self,0,651
15,Nonmatching,Self,Self,1,734
15,Matching,Self,Self,1,639
15,Nonmatching,Self,Self,1,663
15,Matching,Self,Self,1,468
15,Nonmatching,Self,Self,1,631
15,Nonmatching,Self,Self,1,557
15,Nonmatching,Self,Self,1,545
15,Nonmatching,Self,Self,1,554
15,Nonmatching,Self,Self,1,580
15,Matching,Self,Self,1,599
15,Nonmatching,Self,Self,1,671
15,Nonmatching,Self,Friend,0,569
15,Matching,Self,Friend,0,560
15,Matching,Self,Self,1,482
15,Matching,Self,Self,1,590
15,Matching,Self,Self,1,466
15,Matching,Self,Self,0,449
15,Matching,Self,Self,1,579
15,Matching,Self,Self,1,500
15,Nonmatching,Self,Friend,1,748
15,Nonmatching,Self,Self,0,416
15,Nonmatching,Self,Self,0,696
15,Matching,Self,Self,1,650
15,Nonmatching,Self,Friend,1,663
15,Nonmatching,Self,Self,0,438
15,Matching,Self,Friend,0,758
15,Matching,Self,Self,0,304
15,Matching,Self,Self,1,330
15,Nonmatching,Self,Self,0,574
15,Matching,Self,Self,0,408
15,Nonmatching,Self,Self,0,446
15,Nonmatching,Self,Self,1,965
15,Nonmatching,Self,Friend,0,317
15,Nonmatching,Self,Self,1,277
15,Matching,Self,Friend,1,596
15,Matching,Self,Self,1,502
15,Matching,Self,Friend,0,539
15,Matching,Self,Self,1,574
15,Nonmatching,Self,Self,1,885
15,Matching,Self,Self,1,491
15,Matching,Friend,Friend,0,968
15,Matching,Friend,Self,1,1016
15,Nonmatching,Friend,Friend,1,990
15,Nonmatching,Friend,Friend,1,819
15,Matching,Friend,Friend,1,883
15,Matching,Friend,Friend,1,673
15,Matching,Friend,Friend,1,621
15,Nonmatching,Friend,Self,1,758
15,Matching,Friend,Friend,1,604
15,Matching,Friend,Self,0,706
15,Nonmatching,Friend,Self,1,849
15,Nonmatching,Friend,Friend,1,584
15,Matching,Friend,Friend,1,913
15,Matching,Friend,Self,0,589
15,Matching,Friend,Friend,1,567
15,Nonmatching,Friend,Friend,1,1000
15,Matching,Friend,Self,1,790
15,Nonmatching,Friend,Friend,0,634
15,Matching,Friend,Self,1,780
15,Matching,Friend,Friend,1,449
15,Matching,Friend,Self,0,852
15,Matching,Friend,Friend,1,571
15,Matching,Friend,Self,0,828
15,Nonmatching,Friend,Friend,0,554
15,Nonmatching,Friend,Friend,0,436
15,Matching,Friend,Self,1,417
15,Matching,Friend,Self,0,430
15,Matching,Friend,Friend,1,456
15,Nonmatching,Friend,Friend,1,414
15,Nonmatching,Friend,Friend,0,1007
15,Nonmatching,Friend,Friend,1,257
15,Nonmatching,Friend,Friend,0,364
15,Matching,Friend,Self,0,328
15,Nonmatching,Friend,Friend,0,403
15,Matching,Friend,Friend,1,384
15,Matching,Friend,Friend,1,259
15,Matching,Friend,Self,0,611
15,Matching,Friend,Self,1,283
15,Matching,Friend,Friend,1,320
15,Matching,Friend,Friend,1,368
15,Nonmatching,Friend,Friend,1,770
15,Matching,Friend,Friend,1,502
15,Nonmatching,Friend,Friend,1,573
15,Nonmatching,Friend,Self,0,206
15,Nonmatching,Friend,Friend,1,362
15,Matching,Friend,Friend,1,261
15,Nonmatching,Friend,Self,1,797
15,Nonmatching,Friend,Friend,0,387
15,Nonmatching,Friend,Friend,1,809
15,Matching,Friend,Friend,1,430
15,Matching,Friend,Friend,1,524
15,Nonmatching,Friend,Self,0,466
15,Matching,Friend,Friend,1,432
15,Nonmatching,Friend,Friend,1,770
15,Nonmatching,Friend,Friend,0,354
15,Nonmatching,Friend,Self,0,568
15,Matching,Friend,Friend,1,349
15,Matching,Friend,Friend,1,694
15,Matching,Friend,Friend,1,817
15,Matching,Friend,Friend,1,491
15,Matching,Friend,Friend,1,523
15,Nonmatching,Friend,Friend,1,836
15,Nonmatching,Friend,Friend,1,694
15,Matching,Friend,Friend,1,652
15,Nonmatching,Friend,Friend,1,781
15,Matching,Friend,Friend,1,806
15,Nonmatching,Friend,Friend,1,658
15,Nonmatching,Friend,Friend,0,343
15,Nonmatching,Friend,Friend,1,650
15,Nonmatching,Friend,Friend,1,665
15,Matching,Friend,Friend,1,839
15,Nonmatching,Friend,Friend,1,855
15,Matching,Friend,Friend,1,570
15,Nonmatching,Friend,Friend,1,499
15,Nonmatching,Friend,Friend,1,507
15,Matching,Friend,Friend,1,603
15,Nonmatching,Friend,Friend,1,602
15,Nonmatching,Friend,Friend,1,920
15,Matching,Friend,Friend,1,518
15,Nonmatching,Friend,Friend,1,490
15,Matching,Friend,Friend,1,662
15,Nonmatching,Friend,Friend,1,595
15,Nonmatching,Friend,Friend,1,549
15,Matching,Friend,Self,0,667
15,Matching,Friend,Friend,1,947
15,Nonmatching,Friend,Friend,1,617
15,Nonmatching,Friend,Self,0,407
15,Matching,Friend,Self,1,749
15,Nonmatching,Friend,Self,1,774
15,Matching,Friend,Friend,1,629
15,Nonmatching,Friend,Friend,1,661
15,Nonmatching,Friend,Friend,1,428
15,Nonmatching,Friend,Friend,1,719
15,Matching,Friend,Self,1,611
15,Matching,Friend,Friend,0,1069
15,Nonmatching,Friend,Friend,1,1017
15,Nonmatching,Friend,Friend,0,662
15,Nonmatching,Friend,Self,1,816
15,Matching,Friend,Friend,1,957
15,Matching,Friend,Friend,1,429
15,Matching,Friend,Self,0,542
15,Matching,Friend,Self,0,610
15,Matching,Friend,Friend,1,819
15,Matching,Friend,Self,1,988
15,Nonmatching,Friend,Friend,1,969
15,Matching,Friend,Friend,1,635
15,Matching,Friend,Self,1,899
15,Nonmatching,Friend,Friend,0,547
15,Nonmatching,Friend,Friend,0,814
15,Nonmatching,Friend,Self,1,895
15,Matching,Friend,Friend,1,864
15,Nonmatching,Friend,Self,1,740
15,Nonmatching,Friend,Friend,0,723
15,Nonmatching,Friend,Self,1,908
15,Matching,Friend,Self,0,771
15,Matching,Friend,Friend,1,895
15,Matching,Friend,Friend,1,650
15,Matching,Friend,Friend,1,471
15,Nonmatching,Friend,Friend,1,693
15,Nonmatching,Friend,Friend,0,418
15,Matching,Friend,Friend,0,717
15,Nonmatching,Friend,Friend,0,819
15,Matching,Friend,Friend,0,442
15,Matching,Friend,Friend,0,485
15,Nonmatching,Friend,Self,1,478
15,Matching,Friend,Friend,1,410
15,Matching,Friend,Friend,1,589
15,Nonmatching,Friend,Friend,1,940
15,Matching,Friend,Friend,1,446
15,Nonmatching,Friend,Friend,1,346
15,Matching,Friend,Self,1,286
15,Matching,Friend,Friend,1,896
15,Matching,Friend,Self,0,375
15,Nonmatching,Friend,Self,0,261
15,Matching,Friend,Friend,1,841
15,Nonmatching,Friend,Self,0,639
15,Matching,Friend,Friend,0,329
15,Matching,Friend,Friend,1,266
15,Matching,Friend,Friend,1,433
15,Nonmatching,Friend,Friend,1,439
4,Matching,Self,Self,1,780
4,Matching,Self,Self,1,379
4,Nonmatching,Self,Self,1,1051
4,Matching,Self,Self,1,571
4,Nonmatching,Self,Self,1,903
4,Nonmatching,Self,Friend,1,769
4,Matching,Self,Self,1,955
4,Matching,Self,Friend,0,732
4,Matching,Self,Self,1,493
4,Nonmatching,Self,Self,1,599
4,Matching,Self,Self,1,507
4,Nonmatching,Self,Self,1,691
4,Matching,Self,Self,1,448
4,Nonmatching,Self,Self,1,624
4,Matching,Self,Self,1,491
4,Nonmatching,Self,Self,1,783
4,Matching,Self,Friend,1,719
4,Nonmatching,Self,Self,1,638
4,Nonmatching,Self,Self,1,647
4,Matching,Self,Self,1,450
4,Matching,Self,Self,1,506
4,Nonmatching,Self,Friend,1,787
4,Matching,Self,Self,1,598
4,Nonmatching,Self,Friend,1,654
4,Nonmatching,Self,Self,0,336
4,Matching,Self,Self,1,579
4,Matching,Self,Friend,1,915
4,Matching,Self,Friend,1,559
4,Nonmatching,Self,Self,1,832
4,Matching,Self,Self,1,323
4,Matching,Self,Friend,0,579
4,Nonmatching,Self,Self,0,372
4,Nonmatching,Self,Self,1,864
4,Nonmatching,Self,Self,1,557
4,Nonmatching,Self,Self,1,477
4,Matching,Self,Self,1,498
4,Matching,Self,Friend,1,540
4,Nonmatching,Self,Self,1,679
4,Matching,Self,Self,1,314
4,Matching,Self,Self,1,553
4,Nonmatching,Self,Friend,1,706
4,Nonmatching,Self,Friend,1,672
4,Nonmatching,Self,Self,1,720
4,Matching,Self,Self,1,520
4,Nonmatching,Self,Friend,1,514
4,Matching,Self,Friend,1,919
4,Nonmatching,Self,Self,1,626
4,Nonmatching,Self,Self,0,220
4,Matching,Self,Self,1,443
4,Nonmatching,Self,Self,1,567
4,Nonmatching,Self,Self,1,491
4,Matching,Self,Self,1,406
4,Matching,Self,Self,1,405
4,Matching,Self,Self,1,334
4,Nonmatching,Self,Friend,1,449
4,Matching,Self,Friend,1,648
4,Nonmatching,Self,Friend,1,614
4,Nonmatching,Self,Self,1,788
4,Matching,Self,Friend,1,704
4,Matching,Self,Self,1,646
4,Nonmatching,Self,Self,1,458
4,Matching,Self,Self,1,264
4,Nonmatching,Self,Friend,1,604
4,Nonmatching,Self,Self,0,549
4,Nonmatching,Self,Self,1,731
4,Nonmatching,Self,Self,1,493
4,Nonmatching,Self,Self,1,421
4,Nonmatching,Self,Self,1,470
4,Matching,Self,Self,1,364
4,Matching,Self,Friend,0,444
4,Matching,Self,Self,1,546
4,Matching,Self,Self,1,240
4,Nonmatching,Self,Self,0,359
4,Nonmatching,Self,Self,1,590
4,Matching,Self,Self,1,394
4,Nonmatching,Self,Self,1,540
4,Nonmatching,Self,Self,0,404
4,Nonmatching,Self,Self,1,747
4,Nonmatching,Self,Friend,0,570
4,Matching,Self,Self,1,729
4,Matching,Self,Friend,1,528
4,Nonmatching,Self,Friend,0,471
4,Nonmatching,Self,Friend,1,694
4,Matching,Self,Self,1,741
4,Nonmatching,Self,Self,1,756
4,Matching,Self,Friend,1,567
4,Nonmatching,Self,Self,1,628
4,Matching,Self,Self,1,772
4,Nonmatching,Self,Self,1,578
4,Nonmatching,Self,Self,1,672
4,Matching,Self,Self,1,501
4,Nonmatching,Self,Self,1,751
4,Matching,Self,Self,1,552
4,Nonmatching,Self,Self,1,547
4,Nonmatching,Self,Self,1,559
4,Nonmatching,Self,Self,1,552
4,Nonmatching,Self,Friend,0,534
4,Matching,Self,Self,1,1033
4,Matching,Self,Self,1,593
4,Matching,Self,Self,1,390
4,Matching,Self,Self,1,358
4,Nonmatching,Self,Self,1,561
4,Matching,Self,Self,1,382
4,Matching,Self,Self,0,783
4,Nonmatching,Self,Self,1,708
4,Nonmatching,Self,Friend,1,766
4,Nonmatching,Self,Self,1,1040
4,Nonmatching,Self,Self,1,503
4,Matching,Self,Self,1,572
4,Matching,Self,Self,1,458
4,Matching,Self,Self,1,506
4,Matching,Self,Self,1,840
4,Nonmatching,Self,Self,1,434
4,Matching,Self,Self,1,530
4,Nonmatching,Self,Self,1,504
4,Nonmatching,Self,Self,1,448
4,Nonmatching,Self,Friend,0,394
4,Nonmatching,Self,Self,1,659
4,Nonmatching,Self,Self,1,500
4,Nonmatching,Self,Self,1,593
4,Nonmatching,Self,Self,1,432
4,Nonmatching,Self,Self,1,428
4,Nonmatching,Self,Self,1,417
4,Nonmatching,Self,Self,1,405
4,Matching,Self,Self,1,556
4,Matching,Self,Self,1,315
4,Nonmatching,Self,Friend,1,493
4,Matching,Self,Friend,1,347
4,Matching,Self,Friend,1,367
4,Nonmatching,Self,Self,0,449
4,Matching,Self,Self,1,568
4,Matching,Self,Self,1,477
4,Nonmatching,Self,Self,1,610
4,Matching,Self,Self,1,451
4,Nonmatching,Self,Friend,1,552
4,Matching,Self,Self,0,602
4,Matching,Self,Self,1,711
4,Matching,Self,Self,1,871
4,Nonmatching,Self,Self,1,639
4,Nonmatching,Self,Self,1,567
4,Matching,Self,Self,1,538
4,Matching,Self,Self,1,367
4,Matching,Self,Self,1,492
4,Nonmatching,Self,Self,1,554
4,Matching,Self,Self,1,1060
4,Nonmatching,Self,Self,1,575
4,Matching,Self,Friend,0,753
4,Nonmatching,Self,Self,0,565
4,Matching,Self,Self,1,604
4,Nonmatching,Self,Self,1,483
4,Matching,Self,Friend,0,468
4,Matching,Self,Self,1,549
4,Nonmatching,Self,Friend,0,441
4,Matching,Self,Self,1,710
4,Matching,Self,Self,1,408
4,Matching,Self,Self,1,469
4,Nonmatching,Self,Self,1,422
4,Matching,Self,Self,1,526
4,Nonmatching,Self,Self,1,432
4,Nonmatching,Self,Friend,0,597
4,Matching,Self,Self,1,675
4,Matching,Self,Friend,0,630
4,Matching,Self,Self,1,508
4,Nonmatching,Self,Self,1,547
4,Nonmatching,Self,Self,1,466
4,Nonmatching,Self,Friend,0,389
4,Matching,Self,Self,1,609
4,Matching,Self,Friend,0,641
4,Matching,Self,Friend,1,564
4,Nonmatching,Self,Friend,1,508
4,Nonmatching,Self,Self,1,892
4,Nonmatching,Self,Friend,1,653
4,Matching,Self,Friend,1,643
4,Matching,Self,Self,1,495
4,Nonmatching,Self,Self,1,449
4,Matching,Self,Self,1,920
4,Matching,Self,Self,1,471
4,Matching,Self,Friend,0,427
4,Nonmatching,Self,Self,0,517
4,Nonmatching,Self,Self,1,716
4,Matching,Self,Self,1,634
4,Matching,Self,Self,1,609
4,Nonmatching,Self,Self,0,464
4,Matching,Self,Self,1,471
4,Matching,Self,Self,1,577
4,Matching,Self,Self,1,413
4,Nonmatching,Self,Friend,1,515
4,Matching,Self,Self,1,650
4,Nonmatching,Self,Self,1,493
4,Matching,Self,Friend,1,476
4,Matching,Self,Self,1,557
4,Matching,Self,Friend,1,886
4,Matching,Self,Friend,1,675
4,Matching,Self,Self,1,579
4,Nonmatching,Friend,Friend,1,894
4,Matching,Friend,Friend,1,647
4,Nonmatching,Friend,Friend,1,566
4,Matching,Friend,Friend,1,1015
4,Matching,Friend,Self,1,414
4,Nonmatching,Friend,Friend,1,523
4,Nonmatching,Friend,Friend,1,553
4,Matching,Friend,Friend,1,458
4,Nonmatching,Friend,Friend,1,565
4,Matching,Friend,Friend,1,665
4,Nonmatching,Friend,Friend,1,523
4,Matching,Friend,Self,1,360
4,Nonmatching,Friend,Self,1,443
4,Nonmatching,Friend,Self,1,441
4,Matching,Friend,Friend,1,585
4,Matching,Friend,Friend,0,462
4,Nonmatching,Friend,Friend,1,624
4,Matching,Friend,Friend,0,448
4,Nonmatching,Friend,Friend,1,824
4,Matching,Friend,Friend,0,515
4,Matching,Friend,Self,1,497
4,Matching,Friend,Self,1,596
4,Nonmatching,Friend,Friend,0,415
4,Matching,Friend,Friend,1,823
4,Nonmatching,Friend,Friend,1,576
4,Nonmatching,Friend,Friend,1,486
4,Matching,Friend,Friend,1,438
4,Matching,Friend,Friend,1,937
4,Matching,Friend,Friend,1,526
4,Matching,Friend,Friend,1,389
4,Nonmatching,Friend,Self,1,680
4,Nonmatching,Friend,Friend,0,562
4,Nonmatching,Friend,Friend,1,786
4,Nonmatching,Friend,Friend,1,528
4,Nonmatching,Friend,Friend,1,526
4,Nonmatching,Friend,Friend,1,404
4,Matching,Friend,Friend,1,750
4,Nonmatching,Friend,Self,1,670
4,Nonmatching,Friend,Self,1,497
4,Matching,Friend,Friend,1,1068
4,Nonmatching,Friend,Friend,1,717
4,Nonmatching,Friend,Self,0,760
4,Nonmatching,Friend,Friend,1,811
4,Nonmatching,Friend,Self,1,666
4,Nonmatching,Friend,Friend,0,552
4,Matching,Friend,Friend,1,959
4,Nonmatching,Friend,Friend,1,589
4,Nonmatching,Friend,Friend,1,501
4,Matching,Friend,Self,1,558
4,Matching,Friend,Friend,1,868
4,Matching,Friend,Self,1,984
4,Matching,Friend,Friend,1,938
4,Matching,Friend,Friend,1,448
4,Nonmatching,Friend,Friend,0,456
4,Matching,Friend,Friend,1,984
4,Matching,Friend,Self,1,579
4,Matching,Friend,Friend,1,625
4,Matching,Friend,Friend,1,747
4,Nonmatching,Friend,Friend,1,574
4,Nonmatching,Friend,Self,1,752
4,Matching,Friend,Self,1,613
4,Matching,Friend,Friend,1,860
4,Nonmatching,Friend,Friend,1,617
4,Matching,Friend,Self,1,616
4,Nonmatching,Friend,Friend,1,689
4,Nonmatching,Friend,Friend,1,570
4,Nonmatching,Friend,Friend,1,536
4,Matching,Friend,Friend,1,646
4,Nonmatching,Friend,Friend,1,569
4,Matching,Friend,Friend,1,744
4,Matching,Friend,Friend,0,692
4,Nonmatching,Friend,Friend,1,897
4,Matching,Friend,Self,1,569
4,Nonmatching,Friend,Self,1,492
4,Nonmatching,Friend,Self,1,1075
4,Nonmatching,Friend,Friend,1,565
4,Nonmatching,Friend,Self,0,870
4,Matching,Friend,Friend,1,742
4,Matching,Friend,Friend,1,537
4,Matching,Friend,Friend,1,462
4,Matching,Friend,Self,1,667
4,Nonmatching,Friend,Friend,1,721
4,Matching,Friend,Friend,1,872
4,Matching,Friend,Friend,1,623
4,Matching,Friend,Friend,1,393
4,Nonmatching,Friend,Self,1,615
4,Nonmatching,Friend,Friend,1,498
4,Nonmatching,Friend,Friend,1,459
4,Matching,Friend,Friend,1,702
4,Matching,Friend,Friend,1,598
4,Matching,Friend,Friend,1,764
4,Nonmatching,Friend,Friend,0,547
4,Nonmatching,Friend,Friend,1,622
4,Nonmatching,Friend,Friend,1,502
4,Nonmatching,Friend,Self,1,704
4,Matching,Friend,Self,1,502
4,Matching,Friend,Friend,1,724
4,Nonmatching,Friend,Friend,1,551
4,Matching,Friend,Self,1,483
4,Matching,Friend,Friend,0,577
4,Matching,Friend,Friend,1,631
4,Matching,Friend,Friend,1,1044
4,Nonmatching,Friend,Friend,1,500
4,Matching,Friend,Friend,0,594
4,Nonmatching,Friend,Self,1,935
4,Nonmatching,Friend,Friend,1,761
4,Nonmatching,Friend,Self,1,739
4,Nonmatching,Friend,Friend,1,619
4,Matching,Friend,Self,1,527
4,Nonmatching,Friend,Friend,1,888
4,Matching,Friend,Friend,1,477
4,Matching,Friend,Friend,0,422
4,Nonmatching,Friend,Friend,1,706
4,Nonmatching,Friend,Self,1,833
4,Nonmatching,Friend,Friend,1,894
4,Matching,Friend,Friend,1,783
4,Matching,Friend,Self,1,642
4,Matching,Friend,Friend,1,644
4,Nonmatching,Friend,Friend,1,703
4,Nonmatching,Friend,Self,1,697
4,Matching,Friend,Self,1,542
4,Nonmatching,Friend,Friend,1,529
4,Nonmatching,Friend,Self,1,662
4,Matching,Friend,Self,1,733
4,Nonmatching,Friend,Friend,1,636
4,Nonmatching,Friend,Friend,1,500
4,Nonmatching,Friend,Friend,1,452
4,Nonmatching,Friend,Friend,1,743
4,Nonmatching,Friend,Self,1,635
4,Nonmatching,Friend,Friend,1,664
4,Matching,Friend,Friend,1,1013
4,Nonmatching,Friend,Friend,1,570
4,Nonmatching,Friend,Self,1,622
4,Matching,Friend,Self,1,515
4,Nonmatching,Friend,Friend,1,973
4,Nonmatching,Friend,Friend,1,449
4,Matching,Friend,Friend,0,617
4,Nonmatching,Friend,Friend,1,661
4,Nonmatching,Friend,Friend,1,547
4,Matching,Friend,Friend,1,696
4,Matching,Friend,Friend,1,684
4,Matching,Friend,Friend,1,649
4,Matching,Friend,Friend,1,525
4,Matching,Friend,Friend,1,617
4,Matching,Friend,Self,1,610
4,Nonmatching,Friend,Friend,1,545
4,Nonmatching,Friend,Self,1,870
4,Matching,Friend,Friend,1,919
4,Matching,Friend,Friend,1,571
4,Nonmatching,Friend,Friend,1,521
4,Matching,Friend,Friend,1,560
4,Nonmatching,Friend,Friend,1,811
4,Matching,Friend,Self,1,650
4,Matching,Friend,Friend,1,757
4,Nonmatching,Friend,Friend,1,964
4,Nonmatching,Friend,Friend,1,804
4,Matching,Friend,Friend,1,688
4,Matching,Friend,Friend,1,407
4,Matching,Friend,Friend,1,509
4,Nonmatching,Friend,Friend,1,507
4,Nonmatching,Friend,Friend,1,682
4,Matching,Friend,Friend,1,549
4,Nonmatching,Friend,Friend,1,608
4,Nonmatching,Friend,Friend,1,596
4,Matching,Friend,Self,1,527
4,Matching,Friend,Friend,1,653
4,Nonmatching,Friend,Friend,1,608
4,Nonmatching,Friend,Self,1,629
4,Matching,Friend,Self,1,613
4,Matching,Friend,Friend,1,753
4,Nonmatching,Friend,Friend,1,610
4,Matching,Friend,Friend,0,541
4,Matching,Friend,Friend,1,656
4,Matching,Friend,Self,1,622
4,Nonmatching,Friend,Friend,1,456
4,Matching,Friend,Friend,1,644
4,Nonmatching,Friend,Self,1,645
4,Matching,Friend,Friend,1,617
4,Nonmatching,Friend,Friend,1,584
4,Nonmatching,Friend,Self,1,797
4,Nonmatching,Friend,Friend,1,890
4,Nonmatching,Friend,Friend,1,517
4,Nonmatching,Friend,Friend,1,440
4,Matching,Friend,Friend,1,530
4,Matching,Friend,Friend,1,502
4,Matching,Friend,Self,1,385
4,Matching,Friend,Friend,0,569
4,Nonmatching,Friend,Friend,1,751
4,Matching,Friend,Friend,1,668
4,Matching,Friend,Friend,0,886
4,Matching,Friend,Friend,1,612
4,Matching,Friend,Friend,1,542
4,Matching,Friend,Friend,1,498
4,Matching,Friend,Friend,1,422
4,Nonmatching,Friend,Friend,1,547
4,Matching,Friend,Self,1,592
8,Matching,Friend,Friend,1,299
8,Matching,Friend,Friend,1,263
8,Nonmatching,Friend,Self,0,405
8,Nonmatching,Friend,Friend,0,609
8,Nonmatching,Friend,Friend,0,809
8,Nonmatching,Friend,Friend,0,668
8,Nonmatching,Friend,Friend,1,493
8,Matching,Friend,Friend,1,409
8,Nonmatching,Friend,Friend,0,579
8,Matching,Friend,Self,1,665
8,Matching,Friend,Friend,1,510
8,Nonmatching,Friend,Self,0,402
8,Nonmatching,Friend,Friend,1,342
8,Nonmatching,Friend,Friend,0,525
8,Nonmatching,Friend,Friend,0,715
8,Matching,Friend,Self,1,582
8,Nonmatching,Friend,Self,1,293
8,Nonmatching,Friend,Friend,0,334
8,Matching,Friend,Friend,1,203
8,Matching,Friend,Friend,1,287
8,Matching,Friend,Friend,0,262
8,Nonmatching,Friend,Friend,0,255
8,Nonmatching,Friend,Friend,0,494
8,Nonmatching,Friend,Friend,1,511
8,Matching,Friend,Friend,0,292
8,Matching,Friend,Friend,0,590
8,Nonmatching,Friend,Friend,1,571
8,Matching,Friend,Friend,0,597
8,Matching,Friend,Friend,0,668
8,Matching,Friend,Friend,0,1061
8,Matching,Friend,Friend,0,769
8,Nonmatching,Friend,Self,0,352
8,Matching,Friend,Friend,0,679
8,Nonmatching,Friend,Friend,1,256
8,Nonmatching,Friend,Friend,0,348
8,Matching,Friend,Friend,0,615
8,Nonmatching,Friend,Friend,0,244
8,Nonmatching,Friend,Friend,1,439
8,Nonmatching,Friend,Friend,1,464
8,Matching,Friend,Self,0,370
8,Nonmatching,Friend,Friend,1,434
8,Nonmatching,Friend,Self,0,328
8,Matching,Friend,Friend,1,346
8,Matching,Friend,Friend,1,266
8,Matching,Friend,Friend,0,251
8,Nonmatching,Friend,Friend,0,302
8,Matching,Friend,Self,1,254
8,Nonmatching,Friend,Friend,0,219
8,Nonmatching,Friend,Self,0,278
8,Nonmatching,Friend,Self,1,588
8,Nonmatching,Friend,Friend,0,225
8,Matching,Friend,Friend,0,281
8,Matching,Friend,Friend,1,283
8,Matching,Friend,Friend,1,445
8,Nonmatching,Friend,Self,1,351
8,Matching,Friend,Friend,1,258
8,Matching,Friend,Friend,0,278
8,Matching,Friend,Self,0,325
8,Nonmatching,Friend,Friend,1,250
8,Matching,Friend,Friend,0,376
8,Matching,Friend,Self,1,322
8,Nonmatching,Friend,Friend,1,259
8,Nonmatching,Friend,Self,1,257
8,Nonmatching,Friend,Friend,0,243
8,Nonmatching,Friend,Friend,1,713
8,Matching,Friend,Friend,1,688
8,Matching,Friend,Self,0,569
8,Nonmatching,Friend,Friend,0,349
8,Matching,Friend,Self,1,238
8,Nonmatching,Friend,Self,1,248
8,Matching,Friend,Self,1,289
8,Matching,Friend,Friend,0,285
8,Matching,Friend,Friend,1,351
8,Nonmatching,Friend,Self,0,281
8,Matching,Friend,Friend,1,416
8,Matching,Friend,Friend,1,395
8,Matching,Friend,Self,0,301
8,Nonmatching,Friend,Friend,0,231
8,Nonmatching,Friend,Friend,0,300
8,Matching,Friend,Self,0,700
8,Matching,Friend,Friend,1,366
8,Nonmatching,Friend,Self,1,548
8,Nonmatching,Friend,Friend,1,351
8,Matching,Friend,Friend,1,523
8,Nonmatching,Friend,Friend,1,569
8,Matching,Friend,Friend,0,549
8,Nonmatching,Friend,Friend,1,404
8,Nonmatching,Friend,Friend,0,295
8,Matching,Friend,Friend,0,216
8,Matching,Friend,Friend,1,397
8,Matching,Friend,Friend,1,384
8,Nonmatching,Friend,Friend,0,387
8,Nonmatching,Friend,Friend,1,535
8,Matching,Friend,Friend,1,330
8,Nonmatching,Friend,Self,1,513
8,Matching,Friend,Friend,0,776
8,Matching,Friend,Friend,1,388
8,Nonmatching,Friend,Self,1,662
8,Matching,Friend,Self,1,532
8,Matching,Friend,Friend,0,921
8,Nonmatching,Friend,Friend,0,601
8,Matching,Friend,Friend,0,676
8,Nonmatching,Friend,Friend,1,691
8,Nonmatching,Friend,Self,1,870
8,Nonmatching,Friend,Friend,0,937
8,Matching,Friend,Self,0,343
8,Matching,Friend,Friend,0,345
8,Nonmatching,Friend,Friend,0,620
8,Matching,Friend,Friend,1,865
8,Matching,Friend,Friend,0,425
8,Nonmatching,Friend,Self,1,248
8,Nonmatching,Friend,Friend,1,720
8,Nonmatching,Friend,Friend,0,591
8,Matching,Friend,Friend,1,642
8,Nonmatching,Friend,Friend,1,438
8,Nonmatching,Friend,Friend,1,674
8,Matching,Friend,Friend,1,547
8,Matching,Friend,Self,1,566
8,Nonmatching,Friend,Friend,0,585
8,Nonmatching,Friend,Self,1,800
8,Nonmatching,Friend,Friend,1,677
8,Matching,Friend,Friend,0,567
8,Matching,Friend,Friend,1,437
8,Nonmatching,Friend,Friend,1,598
8,Matching,Friend,Friend,1,523
8,Matching,Friend,Friend,1,612
8,Matching,Friend,Self,1,490
8,Nonmatching,Friend,Friend,1,819
8,Matching,Friend,Self,0,725
8,Matching,Friend,Friend,1,669
8,Nonmatching,Friend,Friend,1,670
8,Matching,Friend,Self,1,565
8,Matching,Friend,Self,1,736
8,Matching,Friend,Friend,1,595
8,Nonmatching,Friend,Self,1,714
8,Nonmatching,Friend,Self,1,801
8,Matching,Friend,Friend,1,533
8,Nonmatching,Friend,Self,1,688
8,Matching,Friend,Friend,1,813
8,Nonmatching,Friend,Self,1,619
8,Matching,Friend,Friend,1,772
8,Nonmatching,Friend,Friend,1,677
8,Nonmatching,Friend,Friend,1,893
8,Nonmatching,Friend,Friend,0,653
8,Matching,Friend,Self,1,527
8,Nonmatching,Friend,Friend,1,552
8,Matching,Friend,Self,0,716
8,Matching,Friend,Friend,1,596
8,Matching,Friend,Self,1,751
8,Nonmatching,Friend,Self,1,674
8,Matching,Friend,Friend,1,475
8,Nonmatching,Friend,Friend,1,487
8,Matching,Friend,Friend,1,535
8,Nonmatching,Friend,Friend,1,527
8,Matching,Self,Self,1,325
8,Nonmatching,Self,Self,1,545
8,Nonmatching,Self,Friend,1,840
8,Nonmatching,Self,Self,1,739
8,Matching,Self,Self,1,490
8,Nonmatching,Self,Self,1,598
8,Nonmatching,Self,Friend,1,807
8,Matching,Self,Self,1,520
8,Nonmatching,Self,Self,1,658
8,Matching,Self,Friend,1,737
8,Matching,Self,Self,1,471
8,Nonmatching,Self,Self,0,398
8,Nonmatching,Self,Self,0,457
8,Nonmatching,Self,Self,0,384
8,Nonmatching,Self,Friend,1,372
8,Nonmatching,Self,Self,1,708
8,Matching,Self,Self,1,515
8,Nonmatching,Self,Friend,1,725
8,Matching,Self,Self,1,586
8,Matching,Self,Friend,1,693
8,Nonmatching,Self,Self,1,854
8,Matching,Self,Self,1,486
8,Matching,Self,Self,1,715
8,Nonmatching,Self,Self,1,385
8,Nonmatching,Self,Self,1,525
8,Nonmatching,Self,Friend,0,598
8,Matching,Self,Self,1,582
8,Matching,Self,Self,1,561
8,Nonmatching,Self,Self,1,368
8,Nonmatching,Self,Self,1,425
8,Matching,Self,Self,1,553
8,Nonmatching,Self,Self,1,695
8,Nonmatching,Self,Self,1,449
8,Nonmatching,Self,Self,1,411
8,Nonmatching,Self,Self,1,479
8,Matching,Self,Friend,1,804
8,Nonmatching,Self,Self,1,506
8,Nonmatching,Self,Friend,0,434
8,Matching,Self,Self,1,321
8,Nonmatching,Self,Self,1,541
8,Nonmatching,Self,Self,1,610
8,Nonmatching,Self,Friend,1,644
8,Matching,Self,Self,1,513
8,Nonmatching,Self,Friend,1,559
8,Matching,Self,Self,1,271
8,Matching,Self,Self,0,283
8,Nonmatching,Self,Self,0,361
8,Nonmatching,Self,Self,1,565
8,Matching,Self,Self,1,375
8,Matching,Self,Friend,0,345
8,Nonmatching,Self,Friend,0,354
8,Matching,Self,Self,1,513
8,Nonmatching,Self,Self,1,767
8,Matching,Self,Friend,1,379
8,Nonmatching,Self,Self,0,337
8,Matching,Self,Self,1,365
8,Nonmatching,Self,Self,1,549
8,Matching,Self,Self,1,329
8,Matching,Self,Friend,0,426
8,Matching,Self,Self,0,567
8,Nonmatching,Self,Self,1,493
8,Matching,Self,Self,1,276
8,Matching,Self,Self,1,454
8,Matching,Self,Self,1,333
8,Matching,Self,Friend,1,347
8,Matching,Self,Friend,1,490
8,Matching,Self,Self,1,302
8,Matching,Self,Friend,1,424
8,Matching,Self,Self,1,332
8,Nonmatching,Self,Self,0,313
8,Matching,Self,Self,1,654
8,Matching,Self,Self,1,663
8,Nonmatching,Self,Self,1,604
8,Nonmatching,Self,Friend,0,619
8,Matching,Self,Self,1,448
8,Nonmatching,Self,Self,1,405
8,Matching,Self,Self,1,717
8,Matching,Self,Friend,0,512
8,Nonmatching,Self,Self,1,549
8,Matching,Self,Self,1,519
8,Matching,Self,Self,1,511
8,Nonmatching,Self,Friend,0,357
8,Nonmatching,Self,Friend,1,475
8,Nonmatching,Self,Friend,1,488
8,Matching,Self,Self,1,545
8,Nonmatching,Self,Self,1,453
8,Matching,Self,Self,1,243
8,Matching,Self,Self,1,294
8,Nonmatching,Self,Self,1,529
8,Matching,Self,Self,1,243
8,Matching,Self,Self,1,434
8,Matching,Self,Self,1,512
8,Nonmatching,Self,Self,1,536
8,Matching,Self,Self,1,243
8,Nonmatching,Self,Self,0,360
8,Matching,Self,Self,1,245
8,Nonmatching,Self,Self,1,250
8,Matching,Self,Self,1,303
8,Matching,Self,Self,1,403
8,Nonmatching,Self,Friend,0,396
8,Nonmatching,Self,Self,1,479
8,Nonmatching,Self,Self,0,551
8,Nonmatching,Self,Self,0,283
8,Matching,Self,Self,0,256
8,Nonmatching,Self,Self,0,208
8,Nonmatching,Self,Self,0,387
8,Matching,Self,Self,1,229
8,Nonmatching,Self,Self,1,559
8,Matching,Self,Friend,0,344
8,Nonmatching,Self,Self,0,489
8,Nonmatching,Self,Self,0,463
8,Nonmatching,Self,Self,1,406
8,Matching,Self,Friend,1,629
8,Matching,Self,Friend,0,502
8,Matching,Self,Self,1,407
8,Nonmatching,Self,Self,0,351
8,Matching,Self,Self,1,294
8,Matching,Self,Self,1,342
8,Matching,Self,Friend,1,615
8,Nonmatching,Self,Self,0,315
8,Nonmatching,Self,Friend,0,357
8,Nonmatching,Self,Self,1,262
8,Matching,Self,Friend,0,499
8,Nonmatching,Self,Self,1,331
8,Nonmatching,Self,Self,1,482
8,Matching,Self,Friend,1,622
8,Matching,Self,Self,0,293
8,Matching,Self,Self,1,344
8,Matching,Self,Friend,0,415
8,Nonmatching,Self,Self,0,219
8,Matching,Self,Self,1,518
8,Nonmatching,Self,Self,0,376
8,Nonmatching,Self,Self,0,465
8,Nonmatching,Self,Friend,1,723
8,Nonmatching,Self,Self,1,807
8,Matching,Self,Friend,1,850
8,Nonmatching,Self,Self,1,519
8,Matching,Self,Self,1,422
8,Nonmatching,Self,Self,1,262
8,Matching,Self,Friend,0,470
8,Matching,Self,Self,1,339
8,Matching,Self,Self,1,419
8,Matching,Self,Friend,1,535
8,Matching,Self,Self,1,306
8,Matching,Self,Self,1,306
8,Nonmatching,Self,Friend,0,363
8,Nonmatching,Self,Self,0,605
8,Matching,Self,Self,1,613
8,Matching,Self,Self,1,607
8,Nonmatching,Self,Friend,1,781
8,Nonmatching,Self,Self,0,550
8,Matching,Self,Friend,0,664
8,Matching,Self,Self,1,388
8,Matching,Self,Self,1,345
8,Nonmatching,Self,Self,0,569
8,Nonmatching,Self,Self,0,222
8,Matching,Self,Friend,1,284
8,Matching,Self,Self,1,325
8,Matching,Self,Self,1,278
8,Matching,Self,Self,1,402
8,Nonmatching,Self,Friend,0,433
8,Nonmatching,Self,Friend,1,500
8,Matching,Self,Self,1,464
8,Matching,Self,Friend,1,641
8,Nonmatching,Self,Self,1,491
8,Matching,Self,Self,1,463
8,Nonmatching,Self,Self,1,601
8,Matching,Self,Self,1,281
8,Matching,Self,Self,0,272
8,Nonmatching,Self,Self,0,610
8,Matching,Self,Friend,1,448
8,Nonmatching,Self,Self,1,407
8,Matching,Self,Self,1,487
8,Nonmatching,Self,Self,1,540
8,Matching,Self,Self,1,266
8,Nonmatching,Self,Friend,1,787
8,Nonmatching,Self,Self,0,788
8,Matching,Self,Self,1,346
8,Nonmatching,Self,Friend,1,708
14,Nonmatching,Friend,Friend,1,726
14,Matching,Friend,Self,1,566
14,Matching,Friend,Self,1,482
14,Nonmatching,Friend,Friend,1,559
14,Matching,Friend,Friend,0,1046
14,Nonmatching,Friend,Self,1,925
14,Nonmatching,Friend,Friend,1,1057
14,Nonmatching,Friend,Friend,1,607
14,Matching,Friend,Friend,1,889
14,Matching,Friend,Friend,1,956
14,Nonmatching,Friend,Self,1,946
14,Matching,Friend,Friend,1,828
14,Matching,Friend,Friend,1,627
14,Nonmatching,Friend,Friend,1,647
14,Matching,Friend,Friend,1,829
14,Nonmatching,Friend,Self,1,728
14,Nonmatching,Friend,Friend,1,876
14,Matching,Friend,Self,1,761
14,Nonmatching,Friend,Friend,1,779
14,Nonmatching,Friend,Self,1,1026
14,Matching,Friend,Friend,1,839
14,Nonmatching,Friend,Friend,1,617
14,Nonmatching,Friend,Friend,1,868
14,Matching,Friend,Friend,1,714
14,Matching,Friend,Friend,1,759
14,Nonmatching,Friend,Friend,1,706
14,Nonmatching,Friend,Friend,1,963
14,Matching,Friend,Friend,1,755
14,Matching,Friend,Friend,1,659
14,Nonmatching,Friend,Friend,1,612
14,Nonmatching,Friend,Friend,1,1029
14,Matching,Friend,Friend,1,1018
14,Nonmatching,Friend,Self,1,866
14,Nonmatching,Friend,Friend,1,741
14,Matching,Friend,Friend,1,797
14,Matching,Friend,Self,1,786
14,Matching,Friend,Self,1,563
14,Nonmatching,Friend,Friend,1,599
14,Matching,Friend,Self,1,929
14,Nonmatching,Friend,Self,1,807
14,Matching,Friend,Friend,1,673
14,Matching,Friend,Friend,1,625
14,Nonmatching,Friend,Friend,1,586
14,Matching,Friend,Friend,1,468
14,Matching,Friend,Friend,1,686
14,Matching,Friend,Friend,1,480
14,Nonmatching,Friend,Friend,1,811
14,Nonmatching,Friend,Friend,1,587
14,Matching,Friend,Self,1,540
14,Matching,Friend,Self,1,721
14,Nonmatching,Friend,Friend,1,682
14,Matching,Friend,Friend,1,591
14,Matching,Friend,Friend,1,574
14,Nonmatching,Friend,Friend,1,718
14,Nonmatching,Friend,Friend,1,744
14,Matching,Friend,Friend,1,586
14,Nonmatching,Friend,Friend,1,635
14,Nonmatching,Friend,Friend,1,649
14,Matching,Friend,Self,1,598
14,Nonmatching,Friend,Self,1,826
14,Matching,Friend,Friend,1,484
14,Matching,Friend,Friend,1,558
14,Nonmatching,Friend,Friend,1,619
14,Matching,Friend,Friend,0,772
14,Nonmatching,Friend,Friend,1,618
14,Matching,Friend,Friend,1,521
14,Nonmatching,Friend,Friend,1,698
14,Nonmatching,Friend,Friend,1,479
14,Nonmatching,Friend,Friend,1,636
14,Matching,Friend,Friend,1,657
14,Nonmatching,Friend,Friend,1,656
14,Matching,Friend,Friend,1,856
14,Matching,Friend,Friend,1,493
14,Nonmatching,Friend,Friend,1,540
14,Nonmatching,Friend,Friend,1,788
14,Matching,Friend,Self,0,499
14,Matching,Friend,Friend,1,643
14,Nonmatching,Friend,Friend,1,615
14,Nonmatching,Friend,Self,1,723
14,Nonmatching,Friend,Friend,1,609
14,Matching,Friend,Friend,1,668
14,Nonmatching,Friend,Friend,1,599
14,Matching,Friend,Friend,1,804
14,Nonmatching,Friend,Friend,1,558
14,Nonmatching,Friend,Friend,1,873
14,Nonmatching,Friend,Self,1,1004
14,Matching,Friend,Friend,1,690
14,Matching,Friend,Self,0,743
14,Nonmatching,Friend,Friend,1,857
14,Matching,Friend,Friend,1,699
14,Matching,Friend,Friend,1,712
14,Nonmatching,Friend,Self,1,707
14,Nonmatching,Friend,Friend,1,542
14,Matching,Friend,Friend,1,627
14,Matching,Friend,Friend,1,628
14,Matching,Friend,Self,0,448
14,Matching,Friend,Friend,1,727
14,Nonmatching,Friend,Self,1,779
14,Nonmatching,Friend,Friend,1,637
14,Matching,Friend,Friend,1,845
14,Matching,Friend,Self,1,712
14,Nonmatching,Friend,Friend,1,544
14,Matching,Friend,Self,1,852
14,Nonmatching,Friend,Friend,1,808
14,Matching,Friend,Friend,1,514
14,Matching,Friend,Friend,1,397
14,Matching,Friend,Friend,1,444
14,Matching,Friend,Self,0,556
14,Matching,Friend,Friend,1,554
14,Nonmatching,Friend,Friend,1,655
14,Nonmatching,Friend,Self,1,1066
14,Matching,Friend,Friend,1,772
14,Matching,Friend,Self,1,537
14,Matching,Friend,Friend,1,944
14,Matching,Friend,Friend,1,485
14,Nonmatching,Friend,Self,1,581
14,Matching,Friend,Self,1,675
14,Nonmatching,Friend,Friend,1,804
14,Matching,Friend,Friend,1,877
14,Nonmatching,Friend,Friend,1,649
14,Nonmatching,Friend,Friend,1,1058
14,Nonmatching,Friend,Self,1,774
14,Nonmatching,Friend,Friend,1,704
14,Matching,Friend,Friend,1,383
14,Matching,Friend,Friend,1,526
14,Matching,Friend,Friend,1,653
14,Nonmatching,Friend,Self,1,676
14,Nonmatching,Friend,Friend,1,1008
14,Matching,Friend,Self,1,1058
14,Matching,Friend,Self,1,560
14,Matching,Friend,Self,1,432
14,Nonmatching,Friend,Friend,1,563
14,Nonmatching,Friend,Friend,1,976
14,Matching,Friend,Friend,1,714
14,Nonmatching,Friend,Friend,1,510
14,Matching,Friend,Self,0,799
14,Matching,Friend,Friend,1,441
14,Nonmatching,Friend,Friend,1,626
14,Matching,Friend,Friend,1,343
14,Matching,Friend,Self,1,656
14,Nonmatching,Friend,Friend,1,729
14,Nonmatching,Friend,Friend,1,709
14,Nonmatching,Friend,Friend,1,614
14,Matching,Friend,Friend,1,556
14,Matching,Friend,Friend,1,511
14,Matching,Friend,Friend,1,493
14,Matching,Friend,Self,0,522
14,Matching,Friend,Friend,1,597
14,Nonmatching,Friend,Self,1,899
14,Nonmatching,Friend,Friend,1,747
14,Nonmatching,Friend,Friend,1,734
14,Matching,Friend,Friend,1,406
14,Nonmatching,Friend,Friend,1,552
14,Matching,Friend,Friend,1,541
14,Nonmatching,Friend,Friend,1,619
14,Nonmatching,Friend,Self,1,779
14,Nonmatching,Friend,Friend,1,579
14,Matching,Friend,Friend,1,543
14,Nonmatching,Friend,Self,1,576
14,Matching,Friend,Friend,1,769
14,Matching,Friend,Friend,0,457
14,Nonmatching,Friend,Self,1,705
14,Nonmatching,Friend,Self,1,505
14,Matching,Friend,Friend,1,486
14,Nonmatching,Friend,Friend,1,557
14,Nonmatching,Friend,Self,1,629
14,Matching,Friend,Friend,1,789
14,Nonmatching,Friend,Self,1,730
14,Nonmatching,Friend,Self,1,760
14,Matching,Friend,Self,1,735
14,Matching,Friend,Friend,1,668
14,Matching,Friend,Friend,1,506
14,Nonmatching,Friend,Friend,1,703
14,Matching,Friend,Friend,1,636
14,Matching,Friend,Friend,1,499
14,Nonmatching,Friend,Friend,1,456
14,Nonmatching,Friend,Friend,1,671
14,Nonmatching,Friend,Friend,1,557
14,Nonmatching,Friend,Friend,1,786
14,Matching,Friend,Friend,1,752
14,Nonmatching,Friend,Friend,1,581
14,Nonmatching,Friend,Friend,1,555
14,Nonmatching,Friend,Friend,1,635
14,Nonmatching,Friend,Friend,1,576
14,Matching,Friend,Friend,1,833
14,Nonmatching,Self,Self,1,788
14,Nonmatching,Self,Self,1,749
14,Nonmatching,Self,Self,1,479
14,Matching,Self,Friend,1,663
14,Matching,Self,Friend,1,814
14,Nonmatching,Self,Self,1,599
14,Nonmatching,Self,Self,1,640
14,Matching,Self,Self,1,581
14,Nonmatching,Self,Self,1,1004
14,Matching,Self,Friend,1,635
14,Matching,Self,Self,1,912
14,Matching,Self,Self,1,549
14,Nonmatching,Self,Self,1,717
14,Matching,Self,Self,1,642
14,Matching,Self,Self,1,629
14,Nonmatching,Self,Self,1,680
14,Matching,Self,Friend,1,604
14,Matching,Self,Friend,1,586
14,Nonmatching,Self,Self,1,759
14,Matching,Self,Self,1,621
14,Matching,Self,Self,1,407
14,Matching,Self,Self,1,562
14,Matching,Self,Self,1,384
14,Matching,Self,Self,1,355
14,Nonmatching,Self,Self,0,379
14,Nonmatching,Self,Friend,1,932
14,Nonmatching,Self,Friend,1,903
14,Matching,Self,Friend,1,834
14,Nonmatching,Self,Friend,1,626
14,Matching,Self,Friend,1,720
14,Nonmatching,Self,Self,1,857
14,Matching,Self,Self,1,648
14,Matching,Self,Self,1,489
14,Matching,Self,Friend,1,793
14,Matching,Self,Self,0,592
14,Matching,Self,Self,1,422
14,Matching,Self,Self,1,480
14,Matching,Self,Self,1,646
14,Nonmatching,Self,Self,1,865
14,Nonmatching,Self,Friend,0,724
14,Nonmatching,Self,Self,0,706
14,Nonmatching,Self,Self,1,779
14,Matching,Self,Friend,1,797
14,Nonmatching,Self,Self,1,1089
14,Nonmatching,Self,Friend,1,647
14,Matching,Self,Self,1,471
14,Nonmatching,Self,Friend,1,1050
14,Matching,Self,Self,1,460
14,Matching,Self,Self,1,609
14,Nonmatching,Self,Self,1,504
14,Nonmatching,Self,Self,1,992
14,Nonmatching,Self,Self,1,709
14,Matching,Self,Self,1,570
14,Matching,Self,Self,1,925
14,Matching,Self,Self,1,553
14,Matching,Self,Friend,0,491
14,Nonmatching,Self,Self,1,880
14,Matching,Self,Friend,1,567
14,Matching,Self,Self,1,456
14,Matching,Self,Friend,1,813
14,Matching,Self,Self,1,488
14,Matching,Self,Self,1,591
14,Matching,Self,Self,1,602
14,Nonmatching,Self,Self,1,723
14,Matching,Self,Friend,1,733
14,Matching,Self,Friend,1,528
14,Matching,Self,Self,1,912
14,Matching,Self,Self,1,804
14,Nonmatching,Self,Self,1,584
14,Nonmatching,Self,Self,1,667
14,Nonmatching,Self,Friend,0,651
14,Nonmatching,Self,Self,1,808
14,Matching,Self,Self,1,358
14,Matching,Self,Friend,1,734
14,Matching,Self,Friend,1,536
14,Matching,Self,Self,1,579
14,Matching,Self,Self,1,615
14,Matching,Self,Self,1,628
14,Nonmatching,Self,Self,1,681
14,Nonmatching,Self,Self,1,600
14,Matching,Self,Self,1,469
14,Nonmatching,Self,Friend,1,789
14,Matching,Self,Self,1,585
14,Matching,Self,Self,1,461
14,Matching,Self,Self,1,672
14,Nonmatching,Self,Self,1,660
14,Nonmatching,Self,Self,1,588
14,Nonmatching,Self,Self,1,606
14,Matching,Self,Self,1,387
14,Nonmatching,Self,Friend,1,543
14,Matching,Self,Self,1,573
14,Nonmatching,Self,Self,1,671
14,Matching,Self,Self,1,575
14,Nonmatching,Self,Self,1,789
14,Nonmatching,Self,Self,1,599
14,Matching,Self,Self,1,576
14,Matching,Self,Self,1,648
14,Nonmatching,Self,Self,1,476
14,Matching,Self,Self,1,550
14,Nonmatching,Self,Self,1,588
14,Matching,Self,Self,1,522
14,Nonmatching,Self,Self,1,685
14,Nonmatching,Self,Self,1,587
14,Nonmatching,Self,Self,1,733
14,Nonmatching,Self,Friend,0,673
14,Nonmatching,Self,Friend,1,648
14,Nonmatching,Self,Self,1,500
14,Matching,Self,Friend,1,663
14,Matching,Self,Self,1,470
14,Nonmatching,Self,Self,1,735
14,Matching,Self,Self,1,408
14,Nonmatching,Self,Self,1,631
14,Matching,Self,Self,1,607
14,Matching,Self,Friend,0,615
14,Matching,Self,Self,1,835
14,Matching,Self,Self,1,427
14,Nonmatching,Self,Self,1,499
14,Matching,Self,Self,1,643
14,Nonmatching,Self,Self,1,759
14,Nonmatching,Self,Friend,0,815
14,Nonmatching,Self,Friend,1,698
14,Nonmatching,Self,Self,1,792
14,Nonmatching,Self,Self,1,642
14,Matching,Self,Friend,1,590
14,Nonmatching,Self,Self,1,680
14,Nonmatching,Self,Friend,1,881
14,Nonmatching,Self,Friend,1,978
14,Nonmatching,Self,Self,0,529
14,Nonmatching,Self,Self,1,774
14,Nonmatching,Self,Self,1,422
14,Nonmatching,Self,Self,1,624
14,Nonmatching,Self,Friend,0,566
14,Matching,Self,Self,1,1076
14,Nonmatching,Self,Self,1,502
14,Matching,Self,Self,1,652
14,Nonmatching,Self,Self,1,496
14,Nonmatching,Self,Self,1,609
14,Matching,Self,Self,1,529
14,Nonmatching,Self,Self,1,647
14,Matching,Self,Self,1,421
14,Nonmatching,Self,Friend,0,486
14,Matching,Self,Self,1,720
14,Matching,Self,Friend,0,459
14,Nonmatching,Self,Self,1,586
14,Nonmatching,Self,Self,1,453
14,Nonmatching,Self,Self,1,392
14,Matching,Self,Self,1,571
14,Nonmatching,Self,Friend,0,515
14,Matching,Self,Self,1,645
14,Matching,Self,Friend,0,748
14,Matching,Self,Self,1,737
14,Matching,Self,Self,1,1013
14,Nonmatching,Self,Friend,1,645
14,Matching,Self,Self,1,641
14,Nonmatching,Self,Self,1,631
14,Nonmatching,Self,Self,1,689
14,Nonmatching,Self,Friend,1,1040
14,Matching,Self,Self,1,535
14,Matching,Self,Self,1,643
14,Matching,Self,Friend,0,760
14,Nonmatching,Self,Self,1,527
14,Matching,Self,Self,1,629
14,Nonmatching,Self,Self,1,749
14,Matching,Self,Self,1,649
14,Nonmatching,Self,Self,1,675
14,Nonmatching,Self,Friend,1,735
14,Matching,Self,Self,1,760
19,Matching,Friend,Friend,0,527
19,Nonmatching,Friend,Friend,0,400
19,Matching,Friend,Friend,0,599
19,Nonmatching,Friend,Friend,1,566
19,Nonmatching,Friend,Friend,1,711
19,Matching,Friend,Friend,1,671
19,Matching,Friend,Friend,1,458
19,Matching,Friend,Self,0,382
19,Matching,Friend,Friend,0,450
19,Nonmatching,Friend,Friend,1,723
19,Matching,Friend,Friend,1,690
19,Nonmatching,Friend,Friend,1,487
