Participant #,Trial Number,Trial Type,Expectancy,Shape Association,Target Accuracy,Response Time
9,1,Nonmatching,Friend,Self,1,698
9,2,Nonmatching,Friend,Self,1,443
9,3,Nonmatching,Friend,Self,1,566
9,4,Matching,Friend,Self,1,733
9,5,Nonmatching,Friend,Self,1,587
9,6,Nonmatching,Friend,Self,1,592
9,7,Matching,Friend,Self,1,701
9,8,Matching,Friend,Self,1,470
9,9,Nonmatching,Friend,Self,1,444
1,3,Matching,Friend,Friend,0,312
9,11,Matching,Friend,Self,1,346
9,12,Nonmatching,Friend,Self,1,430
9,13,Nonmatching,Friend,Self,1,556
1,6,Matching,Friend,Friend,0,409
9,15,Matching,Friend,Self,1,379
9,16,Matching,Friend,Self,1,383
9,17,Matching,Friend,Self,1,416
9,18,Matching,Friend,Friend,1,641
9,19,Nonmatching,Friend,Friend,1,472
1,13,Nonmatching,Friend,Self,0,277
1,16,Matching,Friend,Self,0,250
9,22,Matching,Friend,Self,1,527
9,23,Nonmatching,Friend,Self,1,386
1,26,Nonmatching,Friend,Self,0,266
9,25,Matching,Friend,Self,1,382
9,26,Matching,Friend,Self,1,438
1,27,Matching,Friend,Friend,0,330
1,29,Matching,Friend,Self,0,357
1,39,Nonmatching,Friend,Self,0,406
9,30,Matching,Friend,Self,1,528
9,31,Nonmatching,Friend,Self,1,496
9,32,Matching,Friend,Friend,1,504
9,33,Nonmatching,Friend,Self,1,565
9,34,Matching,Friend,Self,1,571
9,35,Matching,Friend,Self,1,620
9,36,Nonmatching,Friend,Self,1,486
9,37,Nonmatching,Friend,Self,1,409
9,38,Nonmatching,Friend,Self,1,445
9,39,Nonmatching,Friend,Self,1,438
9,40,Nonmatching,Friend,Self,1,441
1,40,Nonmatching,Friend,Self,0,352
9,42,Matching,Friend,Self,1,438
9,43,Matching,Friend,Self,1,419
9,44,Nonmatching,Friend,Self,1,459
9,45,Nonmatching,Friend,Self,1,367
1,41,Nonmatching,Friend,Friend,0,289
9,47,Matching,Friend,Self,1,339
1,43,Nonmatching,Friend,Self,0,269
9,49,Matching,Friend,Self,1,565
9,50,Nonmatching,Friend,Self,1,531
1,49,Nonmatching,Friend,Friend,0,257
9,52,Nonmatching,Friend,Friend,1,687
1,57,Matching,Friend,Self,0,293
1,65,Matching,Friend,Self,0,646
9,55,Matching,Friend,Friend,1,774
9,56,Matching,Friend,Self,1,507
1,66,Nonmatching,Friend,Friend,0,871
9,58,Matching,Friend,Self,1,595
9,59,Matching,Friend,Friend,1,549
9,60,Matching,Friend,Friend,1,409
1,73,Nonmatching,Friend,Friend,0,249
9,62,Matching,Friend,Self,1,657
9,63,Nonmatching,Friend,Self,1,852
9,64,Nonmatching,Friend,Self,1,727
9,65,Nonmatching,Friend,Friend,1,619
9,66,Matching,Friend,Self,1,777
9,67,Nonmatching,Friend,Self,1,528
1,76,Matching,Friend,Friend,0,287
9,69,Matching,Friend,Self,1,521
9,70,Nonmatching,Friend,Friend,1,684
9,71,Nonmatching,Friend,Friend,1,515
9,72,Nonmatching,Friend,Self,1,756
1,78,Matching,Friend,Friend,0,496
9,74,Matching,Friend,Self,1,632
9,75,Matching,Friend,Self,1,429
9,76,Matching,Friend,Self,1,340
9,77,Matching,Friend,Self,1,307
9,78,Nonmatching,Friend,Self,1,523
1,79,Matching,Friend,Friend,0,550
9,80,Matching,Friend,Self,1,377
9,81,Nonmatching,Friend,Self,1,511
9,82,Nonmatching,Friend,Self,1,854
9,83,Nonmatching,Friend,Self,1,416
9,84,Matching,Friend,Friend,1,558
1,84,Matching,Friend,Friend,0,289
1,86,Nonmatching,Friend,Self,0,332
9,87,Nonmatching,Friend,Friend,1,683
9,88,Matching,Friend,Friend,1,481
9,89,Matching,Friend,Friend,1,611
9,90,Nonmatching,Friend,Self,1,584
1,89,Matching,Friend,Friend,0,604
9,92,Matching,Friend,Self,1,509
9,93,Matching,Friend,Self,1,432
9,94,Nonmatching,Friend,Self,1,468
9,95,Matching,Friend,Self,1,595
9,96,Nonmatching,Friend,Self,1,404
9,97,Nonmatching,Friend,Self,1,624
1,96,Nonmatching,Friend,Self,0,532
1,99,Matching,Friend,Friend,0,804
1,111,Nonmatching,Friend,Self,0,445
9,101,Nonmatching,Friend,Self,1,525
9,102,Matching,Friend,Friend,1,571
1,120,Matching,Friend,Friend,0,872
9,104,Nonmatching,Friend,Self,1,622
1,126,Nonmatching,Friend,Friend,0,425
1,128,Matching,Friend,Friend,0,521
1,130,Matching,Friend,Friend,0,714
1,142,Nonmatching,Friend,Friend,0,494
9,109,Nonmatching,Friend,Self,1,436
9,110,Nonmatching,Friend,Self,1,425
9,111,Nonmatching,Friend,Self,1,441
1,145,Nonmatching,Friend,Friend,0,540
9,113,Matching,Friend,Self,1,479
9,114,Matching,Friend,Self,1,434
9,115,Matching,Friend,Friend,1,547
9,116,Nonmatching,Friend,Self,1,493
9,117,Nonmatching,Friend,Self,1,485
9,118,Nonmatching,Friend,Self,1,378
1,155,Matching,Friend,Friend,0,612
9,120,Matching,Friend,Self,1,368
9,121,Matching,Friend,Friend,1,578
9,122,Nonmatching,Friend,Friend,1,674
1,169,Matching,Friend,Friend,0,920
9,124,Matching,Friend,Self,1,631
9,125,Nonmatching,Friend,Self,1,775
1,170,Nonmatching,Friend,Self,0,565
9,128,Matching,Friend,Self,1,412
9,129,Nonmatching,Friend,Self,1,488
9,130,Nonmatching,Friend,Self,1,584
9,131,Matching,Friend,Self,1,663
9,132,Nonmatching,Friend,Self,1,570
9,133,Matching,Friend,Self,1,634
1,174,Nonmatching,Friend,Friend,0,316
1,176,Matching,Friend,Friend,0,796
9,136,Nonmatching,Friend,Friend,1,692
9,137,Matching,Friend,Self,1,515
9,138,Nonmatching,Friend,Self,1,712
1,186,Nonmatching,Friend,Friend,0,505
9,140,Nonmatching,Friend,Self,1,386
1,200,Nonmatching,Friend,Friend,0,791
9,142,Matching,Friend,Self,1,444
9,143,Matching,Friend,Self,1,476
9,144,Nonmatching,Friend,Self,1,484
1,6,Matching,Self,Friend,0,719
1,12,Matching,Self,Friend,0,566
9,147,Matching,Friend,Self,1,534
9,148,Matching,Friend,Self,1,565
9,149,Nonmatching,Friend,Self,1,438
1,13,Nonmatching,Self,Friend,0,554
9,151,Matching,Friend,Self,1,523
9,152,Matching,Friend,Self,1,463
9,153,Nonmatching,Friend,Self,1,483
9,154,Matching,Friend,Self,1,561
9,155,Matching,Friend,Self,1,448
9,156,Nonmatching,Friend,Self,1,397
9,157,Nonmatching,Friend,Self,1,485
1,21,Matching,Self,Friend,0,929
9,159,Nonmatching,Friend,Self,1,834
1,24,Matching,Self,Self,0,494
1,30,Nonmatching,Self,Friend,0,690
9,162,Matching,Friend,Friend,1,376
1,43,Nonmatching,Self,Self,0,375
9,164,Matching,Friend,Friend,1,619
1,61,Nonmatching,Self,Self,0,321
9,166,Nonmatching,Friend,Self,1,659
1,64,Nonmatching,Self,Friend,0,516
1,87,Matching,Self,Friend,0,262
9,169,Nonmatching,Friend,Self,1,692
1,95,Nonmatching,Self,Friend,0,505
1,103,Matching,Self,Friend,0,806
1,105,Nonmatching,Self,Friend,0,473
9,174,Matching,Friend,Self,1,383
1,107,Nonmatching,Self,Self,0,905
9,176,Matching,Friend,Self,1,446
9,177,Nonmatching,Friend,Self,1,367
1,111,Matching,Self,Friend,0,897
1,119,Matching,Self,Self,0,533
9,180,Matching,Friend,Friend,1,512
9,181,Nonmatching,Friend,Friend,1,451
9,182,Matching,Friend,Self,1,415
9,183,Nonmatching,Friend,Self,1,598
1,122,Nonmatching,Self,Friend,0,245
9,185,Matching,Friend,Self,1,326
9,186,Matching,Friend,Self,1,415
9,187,Nonmatching,Friend,Self,1,494
9,188,Matching,Friend,Friend,1,432
9,189,Nonmatching,Friend,Self,1,681
1,128,Nonmatching,Self,Self,0,412
9,191,Matching,Friend,Self,1,400
1,130,Nonmatching,Self,Friend,0,512
9,193,Nonmatching,Friend,Self,1,552
1,154,Nonmatching,Self,Friend,0,547
1,177,Nonmatching,Self,Self,0,748
1,180,Nonmatching,Self,Friend,0,502
9,197,Matching,Friend,Self,1,620
9,199,Nonmatching,Friend,Friend,1,548
9,200,Nonmatching,Friend,Self,1,528
9,1,Matching,Self,Self,1,400
9,2,Nonmatching,Self,Friend,1,499
9,3,Nonmatching,Self,Friend,1,344
9,4,Nonmatching,Self,Friend,1,343
9,5,Nonmatching,Self,Friend,1,435
9,6,Nonmatching,Self,Self,1,534
9,7,Nonmatching,Self,Self,1,374
9,8,Nonmatching,Self,Friend,1,876
9,9,Nonmatching,Self,Friend,1,493
1,184,Nonmatching,Self,Friend,0,534
9,11,Matching,Self,Friend,1,379
9,12,Nonmatching,Self,Friend,1,431
9,13,Nonmatching,Self,Friend,1,403
9,14,Nonmatching,Self,Friend,1,386
1,187,Nonmatching,Self,Friend,0,517
1,190,Nonmatching,Self,Friend,0,615
9,17,Matching,Self,Friend,1,427
9,18,Nonmatching,Self,Friend,1,488
1,193,Matching,Self,Friend,0,668
9,20,Nonmatching,Self,Friend,1,704
9,21,Matching,Self,Friend,1,655
9,22,Nonmatching,Self,Friend,1,442
9,23,Matching,Self,Friend,1,528
9,24,Nonmatching,Self,Friend,1,383
9,25,Matching,Self,Self,1,603
1,195,Matching,Self,Self,0,872
9,27,Matching,Self,Friend,1,380
9,28,Nonmatching,Self,Friend,1,590
9,29,Nonmatching,Self,Friend,1,519
2,1,Nonmatching,Self,Self,0,432
9,31,Matching,Self,Self,1,584
2,2,Matching,Self,Friend,0,559
2,5,Matching,Self,Friend,0,630
9,34,Nonmatching,Self,Friend,1,302
9,35,Nonmatching,Self,Friend,1,378
9,37,Matching,Self,Self,1,526
9,38,Matching,Self,Friend,1,721
9,39,Matching,Self,Friend,1,488
9,40,Matching,Self,Friend,1,342
9,41,Matching,Self,Friend,1,437
9,42,Matching,Self,Friend,1,394
2,6,Matching,Self,Friend,0,501
9,44,Matching,Self,Self,1,675
9,45,Nonmatching,Self,Friend,1,424
9,46,Matching,Self,Friend,1,458
9,48,Matching,Self,Friend,1,473
9,49,Matching,Self,Friend,1,446
9,50,Nonmatching,Self,Self,1,466
2,7,Nonmatching,Self,Friend,0,660
2,8,Matching,Self,Friend,0,659
2,10,Nonmatching,Self,Friend,0,445
9,56,Matching,Self,Friend,1,323
9,58,Matching,Self,Friend,1,513
9,59,Matching,Self,Self,1,485
9,61,Matching,Self,Friend,1,390
9,62,Matching,Self,Self,1,387
2,17,Matching,Self,Friend,0,388
9,64,Matching,Self,Friend,1,796
9,65,Nonmatching,Self,Self,1,413
2,18,Nonmatching,Self,Friend,0,569
9,67,Matching,Self,Self,1,684
9,68,Nonmatching,Self,Friend,1,570
9,69,Nonmatching,Self,Friend,1,466
2,21,Nonmatching,Self,Friend,0,737
9,71,Nonmatching,Self,Self,1,449
2,26,Matching,Self,Friend,0,476
2,38,Nonmatching,Self,Friend,0,378
2,39,Nonmatching,Self,Friend,0,407
2,42,Matching,Self,Friend,0,259
2,47,Nonmatching,Self,Self,0,385
9,78,Nonmatching,Self,Friend,1,485
2,48,Nonmatching,Self,Self,0,402
9,82,Nonmatching,Self,Friend,1,309
2,67,Matching,Self,Friend,0,515
9,84,Nonmatching,Self,Friend,1,206
9,85,Matching,Self,Friend,1,445
2,77,Nonmatching,Self,Self,0,377
2,79,Matching,Self,Self,0,329
9,89,Nonmatching,Self,Friend,1,316
9,90,Nonmatching,Self,Friend,1,320
2,83,Nonmatching,Self,Friend,0,477
2,89,Nonmatching,Self,Friend,0,445
2,95,Matching,Self,Friend,0,367
2,96,Nonmatching,Self,Friend,0,673
2,104,Nonmatching,Self,Friend,0,997
2,109,Nonmatching,Self,Self,0,374
9,99,Matching,Self,Friend,1,347
2,113,Matching,Self,Friend,0,367
2,115,Nonmatching,Self,Friend,0,607
9,102,Nonmatching,Self,Friend,1,583
2,117,Matching,Self,Friend,0,712
9,104,Nonmatching,Self,Friend,1,797
2,120,Matching,Self,Friend,0,626
2,138,Nonmatching,Self,Friend,0,399
2,141,Matching,Self,Self,0,460
2,142,Matching,Self,Friend,0,376
2,156,Matching,Self,Friend,0,219
9,110,Nonmatching,Self,Self,1,687
2,165,Nonmatching,Self,Friend,0,562
2,170,Matching,Self,Friend,0,394
2,182,Nonmatching,Self,Friend,0,398
9,115,Nonmatching,Self,Friend,1,502
9,116,Nonmatching,Self,Friend,1,433
9,117,Nonmatching,Self,Friend,1,440
9,118,Nonmatching,Self,Friend,1,333
9,119,Nonmatching,Self,Friend,1,289
9,120,Nonmatching,Self,Friend,1,296
2,185,Matching,Self,Friend,0,480
9,122,Nonmatching,Self,Friend,1,258
2,188,Matching,Self,Self,0,348
9,124,Matching,Self,Friend,1,888
9,125,Nonmatching,Self,Friend,1,652
9,126,Nonmatching,Self,Friend,1,408
2,193,Nonmatching,Self,Self,0,627
9,128,Nonmatching,Self,Friend,1,548
9,129,Matching,Self,Friend,1,440
9,130,Nonmatching,Self,Friend,1,475
9,131,Nonmatching,Self,Friend,1,336
9,132,Nonmatching,Self,Friend,1,325
9,133,Matching,Self,Friend,1,589
9,134,Matching,Self,Friend,1,505
2,194,Nonmatching,Self,Self,0,551
9,136,Matching,Self,Friend,1,456
9,137,Matching,Self,Friend,1,323
9,139,Matching,Self,Friend,1,342
9,140,Matching,Self,Friend,1,369
2,197,Nonmatching,Self,Friend,0,543
2,2,Nonmatching,Friend,Friend,0,449
9,143,Matching,Self,Friend,1,483
9,144,Matching,Self,Friend,1,449
9,145,Matching,Self,Friend,1,631
9,146,Matching,Self,Friend,1,360
9,147,Matching,Self,Friend,1,534
9,148,Matching,Self,Self,1,742
9,149,Nonmatching,Self,Friend,1,483
9,150,Matching,Self,Friend,1,727
9,151,Matching,Self,Friend,1,622
9,152,Matching,Self,Friend,1,425
9,153,Nonmatching,Self,Friend,1,573
9,154,Nonmatching,Self,Friend,1,528
9,155,Matching,Self,Self,1,549
9,156,Matching,Self,Friend,1,616
2,4,Matching,Friend,Self,0,301
9,158,Matching,Self,Friend,1,559
9,159,Nonmatching,Self,Friend,1,757
9,160,Nonmatching,Self,Friend,1,581
2,9,Matching,Friend,Friend,0,1063
9,162,Nonmatching,Self,Friend,1,639
9,163,Matching,Self,Friend,1,479
9,164,Nonmatching,Self,Friend,1,673
2,12,Matching,Friend,Self,0,389
9,166,Matching,Self,Self,1,729
9,167,Matching,Self,Friend,1,638
9,168,Matching,Self,Friend,1,539
9,169,Matching,Self,Friend,1,342
9,170,Nonmatching,Self,Friend,1,621
9,171,Matching,Self,Self,1,623
9,172,Nonmatching,Self,Self,1,819
9,173,Nonmatching,Self,Self,1,452
9,174,Matching,Self,Friend,1,516
9,175,Nonmatching,Self,Friend,1,703
9,176,Nonmatching,Self,Friend,1,443
9,177,Matching,Self,Self,1,561
2,17,Matching,Friend,Self,0,372
2,18,Matching,Friend,Self,0,342
9,180,Nonmatching,Self,Friend,1,364
9,182,Nonmatching,Self,Friend,1,651
2,19,Matching,Friend,Self,0,364
2,21,Nonmatching,Friend,Self,0,450
9,185,Nonmatching,Self,Friend,1,655
2,24,Matching,Friend,Friend,0,551
9,187,Matching,Self,Friend,1,576
9,188,Matching,Self,Friend,1,429
9,189,Nonmatching,Self,Self,1,468
9,190,Nonmatching,Self,Friend,1,711
2,40,Matching,Friend,Friend,0,557
9,192,Nonmatching,Self,Friend,1,765
2,45,Nonmatching,Friend,Self,0,557
2,49,Matching,Friend,Self,0,382
9,199,Matching,Self,Friend,1,401
9,200,Matching,Self,Friend,1,276
2,51,Matching,Friend,Friend,0,586
5,2,Nonmatching,Friend,Self,1,665
5,3,Nonmatching,Friend,Self,1,867
5,4,Matching,Friend,Self,1,527
5,5,Nonmatching,Friend,Self,1,676
5,6,Nonmatching,Friend,Self,1,464
5,7,Nonmatching,Friend,Self,1,407
5,8,Nonmatching,Friend,Self,1,457
5,9,Nonmatching,Friend,Self,1,410
5,10,Matching,Friend,Self,1,505
5,11,Matching,Friend,Self,1,482
5,12,Nonmatching,Friend,Friend,1,480
2,52,Nonmatching,Friend,Self,0,493
2,60,Matching,Friend,Self,0,639
2,87,Nonmatching,Friend,Friend,0,295
5,16,Nonmatching,Friend,Self,1,933
5,17,Nonmatching,Friend,Self,1,599
5,18,Nonmatching,Friend,Self,1,539
2,90,Matching,Friend,Friend,0,572
5,20,Nonmatching,Friend,Self,1,700
5,21,Nonmatching,Friend,Self,1,805
5,22,Nonmatching,Friend,Self,1,566
5,23,Matching,Friend,Self,1,900
2,92,Matching,Friend,Friend,0,603
5,25,Matching,Friend,Friend,1,724
5,26,Nonmatching,Friend,Self,1,663
5,27,Matching,Friend,Friend,1,754
5,28,Matching,Friend,Friend,1,578
2,102,Nonmatching,Friend,Friend,0,753
5,30,Matching,Friend,Self,1,787
2,112,Matching,Friend,Friend,0,432
2,113,Nonmatching,Friend,Self,0,291
5,33,Matching,Friend,Self,1,909
5,34,Matching,Friend,Self,1,623
5,35,Nonmatching,Friend,Self,1,698
5,36,Matching,Friend,Self,1,883
5,37,Nonmatching,Friend,Self,1,816
5,38,Nonmatching,Friend,Self,1,909
5,39,Matching,Friend,Self,1,596
5,40,Matching,Friend,Self,1,529
5,41,Nonmatching,Friend,Self,1,700
2,121,Nonmatching,Friend,Self,0,591
2,127,Matching,Friend,Friend,0,521
5,44,Nonmatching,Friend,Self,1,681
5,45,Matching,Friend,Self,1,962
5,46,Nonmatching,Friend,Self,1,705
5,47,Nonmatching,Friend,Self,1,540
5,48,Matching,Friend,Self,1,759
2,142,Nonmatching,Friend,Self,0,555
5,50,Nonmatching,Friend,Self,1,959
2,146,Matching,Friend,Self,0,442
5,52,Matching,Friend,Self,1,940
5,53,Matching,Friend,Self,1,589
5,54,Matching,Friend,Self,1,652
5,55,Matching,Friend,Self,1,506
2,147,Nonmatching,Friend,Friend,0,465
5,57,Nonmatching,Friend,Self,1,1022
5,58,Matching,Friend,Self,1,704
5,59,Nonmatching,Friend,Self,1,1034
5,60,Matching,Friend,Self,1,771
5,61,Nonmatching,Friend,Self,1,667
2,168,Matching,Friend,Friend,0,684
5,63,Matching,Friend,Self,1,660
5,64,Nonmatching,Friend,Self,1,820
5,65,Nonmatching,Friend,Self,1,638
5,66,Nonmatching,Friend,Self,1,597
5,67,Nonmatching,Friend,Self,1,495
5,68,Nonmatching,Friend,Self,1,568
5,69,Matching,Friend,Self,1,636
5,71,Nonmatching,Friend,Self,1,687
5,72,Nonmatching,Friend,Self,1,719
5,73,Nonmatching,Friend,Self,1,524
5,74,Matching,Friend,Self,1,961
5,75,Nonmatching,Friend,Friend,1,1012
5,76,Matching,Friend,Friend,1,621
5,77,Nonmatching,Friend,Self,1,692
5,78,Nonmatching,Friend,Self,1,510
5,79,Matching,Friend,Self,1,682
5,80,Nonmatching,Friend,Self,1,619
5,81,Nonmatching,Friend,Self,1,554
2,169,Matching,Friend,Self,0,930
2,177,Nonmatching,Friend,Self,0,540
2,180,Nonmatching,Friend,Friend,0,522
2,198,Matching,Friend,Friend,0,842
5,86,Nonmatching,Friend,Self,1,909
5,87,Nonmatching,Friend,Self,1,650
5,88,Matching,Friend,Self,1,791
5,89,Matching,Friend,Friend,1,642
3,15,Matching,Self,Friend,0,824
5,91,Matching,Friend,Self,1,985
5,92,Matching,Friend,Self,1,621
5,93,Nonmatching,Friend,Self,1,728
5,94,Matching,Friend,Self,1,576
5,95,Matching,Friend,Self,1,707
5,96,Matching,Friend,Self,1,432
5,97,Nonmatching,Friend,Self,1,540
5,98,Matching,Friend,Self,1,633
5,99,Nonmatching,Friend,Self,1,534
5,100,Nonmatching,Friend,Self,1,898
5,101,Matching,Friend,Self,1,462
3,33,Matching,Self,Friend,0,423
5,103,Matching,Friend,Friend,1,828
5,104,Matching,Friend,Friend,1,430
3,38,Nonmatching,Self,Friend,0,412
5,106,Matching,Friend,Friend,1,603
5,107,Nonmatching,Friend,Self,1,718
5,108,Nonmatching,Friend,Self,1,577
3,43,Matching,Self,Friend,0,441
3,55,Nonmatching,Self,Self,0,629
5,112,Nonmatching,Friend,Self,1,894
3,64,Matching,Self,Self,0,588
5,114,Matching,Friend,Self,1,822
5,115,Matching,Friend,Self,1,505
3,81,Matching,Self,Friend,0,450
5,117,Matching,Friend,Self,1,770
5,118,Matching,Friend,Self,1,594
5,119,Matching,Friend,Self,1,606
5,120,Matching,Friend,Self,1,665
5,121,Nonmatching,Friend,Self,1,719
3,91,Nonmatching,Self,Self,0,454
5,123,Matching,Friend,Self,1,923
5,124,Matching,Friend,Self,1,397
5,125,Nonmatching,Friend,Self,1,777
5,126,Nonmatching,Friend,Friend,1,864
5,127,Matching,Friend,Self,1,577
5,128,Matching,Friend,Self,1,433
5,129,Matching,Friend,Self,1,447
5,130,Nonmatching,Friend,Friend,1,591
5,131,Matching,Friend,Friend,1,746
5,132,Nonmatching,Friend,Friend,1,822
5,133,Matching,Friend,Friend,1,912
5,134,Matching,Friend,Self,1,634
5,135,Matching,Friend,Self,1,589
5,136,Nonmatching,Friend,Self,1,545
5,137,Nonmatching,Friend,Self,1,572
5,138,Matching,Friend,Friend,1,585
5,139,Matching,Friend,Self,1,794
5,140,Matching,Friend,Self,1,820
5,141,Nonmatching,Friend,Self,1,660
5,142,Matching,Friend,Self,1,951
5,143,Nonmatching,Friend,Friend,1,753
5,144,Matching,Friend,Self,1,685
5,145,Nonmatching,Friend,Friend,1,718
3,103,Nonmatching,Self,Friend,0,574
5,147,Matching,Friend,Self,1,841
3,111,Matching,Self,Friend,0,441
3,112,Matching,Self,Friend,0,982
5,150,Matching,Friend,Self,1,857
3,113,Nonmatching,Self,Friend,0,373
3,114,Matching,Self,Friend,0,469
3,116,Nonmatching,Self,Friend,0,609
5,155,Nonmatching,Friend,Self,1,785
5,156,Nonmatching,Friend,Self,1,673
3,124,Nonmatching,Self,Friend,0,763
3,136,Nonmatching,Self,Self,0,422
5,159,Nonmatching,Friend,Self,1,795
5,160,Matching,Friend,Self,1,568
3,140,Nonmatching,Self,Self,0,469
3,153,Nonmatching,Self,Friend,0,445
5,163,Matching,Friend,Self,1,965
5,164,Matching,Friend,Friend,1,567
5,165,Nonmatching,Friend,Friend,1,629
5,166,Matching,Friend,Friend,1,838
3,159,Matching,Self,Friend,0,590
5,168,Matching,Friend,Self,1,635
3,168,Matching,Self,Friend,0,654
3,173,Nonmatching,Self,Friend,0,454
5,171,Nonmatching,Friend,Self,1,774
3,176,Matching,Self,Friend,0,560
5,173,Nonmatching,Friend,Self,1,442
3,191,Matching,Self,Friend,0,299
5,175,Matching,Friend,Self,1,848
5,176,Matching,Friend,Self,1,462
5,177,Nonmatching,Friend,Self,1,728
5,179,Nonmatching,Friend,Self,1,947
3,198,Nonmatching,Self,Friend,0,659
5,181,Nonmatching,Friend,Self,1,973
3,199,Nonmatching,Self,Self,0,504
5,183,Matching,Friend,Friend,1,908
5,184,Nonmatching,Friend,Friend,1,666
5,185,Matching,Friend,Self,1,581
5,186,Nonmatching,Friend,Friend,1,679
5,187,Matching,Friend,Friend,1,937
5,188,Nonmatching,Friend,Self,1,769
5,189,Nonmatching,Friend,Self,1,753
3,200,Nonmatching,Self,Friend,0,643
5,191,Nonmatching,Friend,Self,1,947
3,50,Matching,Friend,Self,0,551
5,193,Matching,Friend,Self,1,824
3,64,Matching,Friend,Self,0,490
5,195,Matching,Friend,Self,1,543
5,196,Matching,Friend,Self,1,555
5,197,Matching,Friend,Self,1,395
5,198,Nonmatching,Friend,Self,1,529
5,199,Matching,Friend,Friend,1,571
5,200,Matching,Friend,Self,1,919
3,66,Nonmatching,Friend,Friend,0,517
3,68,Matching,Friend,Self,0,580
3,78,Nonmatching,Friend,Friend,0,503
5,4,Matching,Self,Friend,1,978
5,5,Nonmatching,Self,Friend,1,694
5,6,Matching,Self,Friend,1,780
5,7,Nonmatching,Self,Self,1,634
3,99,Nonmatching,Friend,Friend,0,467
5,9,Matching,Self,Friend,1,799
5,10,Nonmatching,Self,Self,1,362
3,100,Matching,Friend,Self,0,597
5,12,Matching,Self,Self,1,708
5,13,Matching,Self,Self,1,482
5,14,Nonmatching,Self,Friend,1,518
5,15,Nonmatching,Self,Friend,1,554
3,102,Nonmatching,Friend,Self,0,481
3,106,Matching,Friend,Self,0,453
5,18,Nonmatching,Self,Friend,1,364
5,19,Matching,Self,Friend,1,642
5,20,Matching,Self,Friend,1,516
3,119,Matching,Friend,Self,0,403
5,22,Nonmatching,Self,Friend,1,867
5,23,Matching,Self,Friend,1,510
5,24,Matching,Self,Friend,1,412
5,25,Nonmatching,Self,Friend,1,663
3,122,Matching,Friend,Self,0,590
3,138,Matching,Friend,Self,0,864
5,28,Nonmatching,Self,Friend,1,722
3,143,Matching,Friend,Self,0,867
5,30,Nonmatching,Self,Friend,1,670
5,31,Matching,Self,Self,1,832
5,32,Nonmatching,Self,Self,1,543
5,33,Matching,Self,Friend,1,522
5,34,Matching,Self,Friend,1,414
3,152,Matching,Friend,Self,0,552
3,158,Matching,Friend,Self,0,520
5,37,Nonmatching,Self,Friend,1,621
3,171,Nonmatching,Friend,Friend,0,450
5,39,Nonmatching,Self,Friend,1,326
3,200,Matching,Friend,Self,0,467
5,41,Nonmatching,Self,Self,1,476
4,1,Nonmatching,Friend,Self,0,296
5,43,Nonmatching,Self,Friend,1,290
5,47,Matching,Self,Self,1,575
5,48,Nonmatching,Self,Self,1,654
5,49,Nonmatching,Self,Self,1,621
5,50,Nonmatching,Self,Self,1,439
5,51,Matching,Self,Friend,1,583
5,52,Nonmatching,Self,Friend,1,657
4,5,Matching,Friend,Self,0,329
5,54,Nonmatching,Self,Friend,1,582
5,55,Nonmatching,Self,Friend,1,607
5,56,Nonmatching,Self,Self,1,468
4,8,Nonmatching,Friend,Self,0,200
5,60,Nonmatching,Self,Friend,1,481
4,11,Nonmatching,Friend,Self,0,204
4,12,Nonmatching,Friend,Self,0,219
5,63,Matching,Self,Friend,1,810
5,64,Nonmatching,Self,Friend,1,234
4,16,Nonmatching,Friend,Self,0,409
4,20,Matching,Friend,Friend,0,248
4,22,Matching,Friend,Self,0,201
4,32,Matching,Friend,Friend,0,387
4,35,Nonmatching,Friend,Self,0,283
4,36,Nonmatching,Friend,Friend,0,507
4,38,Matching,Friend,Self,0,215
4,42,Nonmatching,Friend,Friend,0,231
4,45,Matching,Friend,Self,0,405
4,48,Nonmatching,Friend,Self,0,208
5,76,Nonmatching,Self,Friend,1,497
4,49,Matching,Friend,Self,0,254
4,50,Matching,Friend,Self,0,380
4,51,Matching,Friend,Friend,0,524
4,54,Nonmatching,Friend,Self,0,202
5,83,Matching,Self,Self,1,742
5,84,Nonmatching,Self,Friend,1,514
5,85,Matching,Self,Friend,1,946
5,87,Matching,Self,Friend,1,391
5,88,Nonmatching,Self,Friend,1,717
5,89,Matching,Self,Friend,1,551
5,90,Matching,Self,Friend,1,975
5,92,Nonmatching,Self,Friend,1,586
5,93,Matching,Self,Friend,1,521
5,94,Matching,Self,Friend,1,374
4,55,Nonmatching,Friend,Friend,0,409
4,56,Nonmatching,Friend,Self,0,483
4,60,Matching,Friend,Self,0,251
5,98,Matching,Self,Self,1,591
5,100,Matching,Self,Self,1,648
4,63,Matching,Friend,Self,0,266
4,65,Nonmatching,Friend,Self,0,332
5,103,Nonmatching,Self,Friend,1,809
4,67,Matching,Friend,Self,0,414
4,69,Matching,Friend,Self,0,295
4,72,Matching,Friend,Self,0,291
4,76,Nonmatching,Friend,Self,0,423
4,85,Nonmatching,Friend,Self,0,313
5,110,Matching,Self,Friend,1,572
5,111,Nonmatching,Self,Self,1,517
4,86,Nonmatching,Friend,Self,0,261
5,114,Nonmatching,Self,Friend,1,564
5,115,Nonmatching,Self,Friend,1,446
5,116,Nonmatching,Self,Friend,1,433
5,117,Nonmatching,Self,Friend,1,437
4,87,Nonmatching,Friend,Self,0,217
5,119,Matching,Self,Friend,1,320
4,89,Matching,Friend,Self,0,217
5,121,Matching,Self,Friend,1,357
5,122,Matching,Self,Friend,1,370
5,123,Matching,Self,Friend,1,404
5,124,Matching,Self,Friend,1,362
5,125,Matching,Self,Friend,1,380
4,90,Matching,Friend,Self,0,389
5,128,Matching,Self,Friend,1,267
5,129,Matching,Self,Friend,1,329
4,91,Matching,Friend,Friend,0,580
5,131,Matching,Self,Friend,1,731
5,133,Matching,Self,Friend,1,416
4,93,Matching,Friend,Friend,0,242
5,135,Matching,Self,Friend,1,411
4,94,Nonmatching,Friend,Friend,0,346
5,137,Matching,Self,Self,1,409
4,96,Nonmatching,Friend,Self,0,323
5,139,Matching,Self,Friend,1,372
5,140,Matching,Self,Friend,1,446
5,141,Matching,Self,Friend,1,685
5,143,Matching,Self,Friend,1,410
5,144,Matching,Self,Friend,1,513
5,145,Nonmatching,Self,Friend,1,513
4,99,Nonmatching,Friend,Self,0,830
5,147,Nonmatching,Self,Friend,1,722
4,103,Nonmatching,Friend,Self,0,223
5,150,Matching,Self,Self,1,241
4,107,Matching,Friend,Friend,0,419
4,113,Nonmatching,Friend,Self,0,560
5,153,Matching,Self,Self,1,287
5,154,Nonmatching,Self,Friend,1,650
4,118,Matching,Friend,Self,0,294
5,157,Matching,Self,Friend,1,390
4,119,Matching,Friend,Self,0,410
4,121,Matching,Friend,Friend,0,504
4,122,Nonmatching,Friend,Self,0,403
4,126,Nonmatching,Friend,Self,0,484
4,133,Nonmatching,Friend,Friend,0,484
5,164,Nonmatching,Self,Self,1,1072
4,139,Matching,Friend,Friend,0,638
5,167,Nonmatching,Self,Friend,1,222
4,143,Matching,Friend,Friend,0,529
5,171,Matching,Self,Friend,1,560
5,173,Matching,Self,Friend,1,363
5,174,Matching,Self,Friend,1,398
4,145,Nonmatching,Friend,Self,0,648
4,146,Nonmatching,Friend,Self,0,352
4,147,Matching,Friend,Self,0,381
4,149,Nonmatching,Friend,Friend,0,305
5,184,Matching,Self,Self,1,371
4,150,Matching,Friend,Self,0,483
4,156,Matching,Friend,Friend,0,604
5,187,Nonmatching,Self,Friend,1,342
5,188,Matching,Self,Self,1,504
5,190,Matching,Self,Friend,1,720
5,192,Matching,Self,Friend,1,383
5,193,Matching,Self,Friend,1,391
4,160,Nonmatching,Friend,Self,0,670
4,175,Matching,Friend,Friend,0,704
4,177,Nonmatching,Friend,Self,0,249
4,181,Nonmatching,Friend,Friend,0,558
4,182,Nonmatching,Friend,Self,0,650
5,199,Matching,Self,Friend,1,385
24,1,Matching,Friend,Self,1,620
24,2,Nonmatching,Friend,Self,1,587
4,183,Nonmatching,Friend,Friend,0,745
24,4,Matching,Friend,Self,1,678
24,5,Matching,Friend,Self,1,564
24,6,Nonmatching,Friend,Friend,1,636
24,7,Matching,Friend,Self,1,733
4,187,Matching,Friend,Friend,0,630
24,9,Nonmatching,Friend,Self,1,780
24,10,Nonmatching,Friend,Friend,1,506
24,11,Matching,Friend,Self,1,586
24,12,Nonmatching,Friend,Self,1,547
24,13,Matching,Friend,Self,1,578
24,14,Nonmatching,Friend,Friend,1,492
24,15,Nonmatching,Friend,Self,1,643
4,196,Nonmatching,Friend,Self,0,307
24,17,Matching,Friend,Self,1,634
24,18,Matching,Friend,Self,1,566
24,19,Matching,Friend,Self,1,438
24,20,Nonmatching,Friend,Self,1,420
24,21,Matching,Friend,Self,1,513
24,22,Nonmatching,Friend,Friend,1,410
24,23,Matching,Friend,Self,1,475
4,197,Matching,Friend,Self,0,320
24,25,Matching,Friend,Self,1,417
24,26,Matching,Friend,Self,1,425
24,27,Matching,Friend,Self,1,403
24,28,Matching,Friend,Self,1,353
4,2,Matching,Self,Friend,0,377
24,30,Matching,Friend,Self,1,394
24,31,Nonmatching,Friend,Self,1,430
24,32,Nonmatching,Friend,Friend,1,422
4,7,Matching,Self,Friend,0,518
4,9,Nonmatching,Self,Friend,0,416
4,10,Nonmatching,Self,Friend,0,435
24,36,Nonmatching,Friend,Self,1,518
24,37,Matching,Friend,Self,1,430
4,32,Matching,Self,Self,0,363
4,37,Matching,Self,Friend,0,478
24,40,Nonmatching,Friend,Friend,1,552
24,41,Matching,Friend,Self,1,656
24,42,Matching,Friend,Self,1,515
24,43,Matching,Friend,Self,1,577
24,44,Matching,Friend,Self,1,359
4,40,Nonmatching,Self,Self,0,346
24,46,Nonmatching,Friend,Friend,1,294
24,47,Nonmatching,Friend,Friend,1,383
24,48,Nonmatching,Friend,Self,1,532
4,48,Matching,Self,Self,0,489
24,50,Nonmatching,Friend,Friend,1,370
24,51,Matching,Friend,Self,1,351
24,52,Matching,Friend,Self,1,408
24,53,Nonmatching,Friend,Self,1,435
24,54,Nonmatching,Friend,Self,1,639
4,50,Nonmatching,Self,Self,0,319
24,56,Nonmatching,Friend,Self,1,494
24,57,Nonmatching,Friend,Self,1,362
24,58,Nonmatching,Friend,Self,1,471
4,54,Nonmatching,Self,Friend,0,337
4,55,Nonmatching,Self,Friend,0,855
24,62,Matching,Friend,Self,1,715
24,63,Matching,Friend,Self,1,424
24,64,Nonmatching,Friend,Self,1,418
24,65,Nonmatching,Friend,Self,1,381
24,66,Matching,Friend,Self,1,464
4,58,Matching,Self,Friend,0,245
4,59,Nonmatching,Self,Friend,0,774
4,61,Nonmatching,Self,Friend,0,989
4,64,Matching,Self,Friend,0,264
24,71,Nonmatching,Friend,Self,1,451
24,72,Nonmatching,Friend,Self,1,395
24,73,Nonmatching,Friend,Self,1,392
24,74,Nonmatching,Friend,Self,1,369
24,75,Matching,Friend,Self,1,448
24,76,Matching,Friend,Self,1,433
24,77,Matching,Friend,Self,1,353
4,74,Nonmatching,Self,Friend,0,435
24,79,Nonmatching,Friend,Self,1,420
24,80,Nonmatching,Friend,Self,1,365
24,81,Matching,Friend,Self,1,429
24,82,Matching,Friend,Self,1,346
24,83,Nonmatching,Friend,Self,1,453
4,82,Nonmatching,Self,Friend,0,557
24,85,Matching,Friend,Friend,1,533
4,94,Matching,Self,Friend,0,490
24,87,Nonmatching,Friend,Self,1,738
4,96,Nonmatching,Self,Friend,0,704
24,89,Matching,Friend,Self,1,511
24,90,Matching,Friend,Self,1,405
24,91,Matching,Friend,Self,1,436
24,92,Nonmatching,Friend,Self,1,458
24,93,Nonmatching,Friend,Self,1,418
24,94,Matching,Friend,Self,1,377
4,103,Matching,Self,Friend,0,636
4,107,Matching,Self,Friend,0,488
24,97,Nonmatching,Friend,Self,1,617
4,112,Matching,Self,Friend,0,589
24,99,Matching,Friend,Self,1,538
4,116,Nonmatching,Self,Friend,0,252
24,101,Nonmatching,Friend,Friend,1,362
24,102,Nonmatching,Friend,Self,1,354
4,120,Nonmatching,Self,Friend,0,331
4,122,Matching,Self,Friend,0,783
24,105,Nonmatching,Friend,Self,1,602
24,106,Matching,Friend,Self,1,445
24,107,Nonmatching,Friend,Self,1,444
4,135,Nonmatching,Self,Friend,0,859
24,109,Matching,Friend,Self,1,387
24,110,Nonmatching,Friend,Self,1,470
24,111,Nonmatching,Friend,Self,1,328
24,112,Matching,Friend,Self,1,399
4,136,Matching,Self,Friend,0,441
24,114,Nonmatching,Friend,Self,1,326
4,138,Nonmatching,Self,Friend,0,886
24,116,Matching,Friend,Self,1,676
24,117,Nonmatching,Friend,Friend,1,283
24,118,Nonmatching,Friend,Self,1,375
24,119,Matching,Friend,Self,1,460
4,143,Nonmatching,Self,Friend,0,285
24,121,Nonmatching,Friend,Self,1,336
4,147,Matching,Self,Friend,0,263
24,123,Nonmatching,Friend,Self,1,356
24,124,Matching,Friend,Self,1,454
24,125,Nonmatching,Friend,Self,1,483
24,126,Matching,Friend,Self,1,513
24,127,Nonmatching,Friend,Self,1,477
24,128,Matching,Friend,Self,1,433
4,148,Nonmatching,Self,Friend,0,235
4,152,Matching,Self,Friend,0,323
4,153,Nonmatching,Self,Friend,0,292
4,157,Matching,Self,Friend,0,821
24,133,Nonmatching,Friend,Friend,1,296
24,134,Nonmatching,Friend,Self,1,382
4,167,Matching,Self,Self,0,254
24,136,Nonmatching,Friend,Self,1,629
4,168,Nonmatching,Self,Friend,0,231
24,138,Nonmatching,Friend,Friend,1,513
24,139,Nonmatching,Friend,Self,1,380
24,140,Nonmatching,Friend,Self,1,476
4,170,Nonmatching,Self,Self,0,584
24,142,Matching,Friend,Self,1,427
4,173,Nonmatching,Self,Friend,0,449
24,144,Nonmatching,Friend,Friend,1,252
24,145,Matching,Friend,Self,1,523
4,185,Nonmatching,Self,Friend,0,539
24,147,Nonmatching,Friend,Friend,1,517
4,193,Matching,Self,Friend,0,880
4,194,Matching,Self,Friend,0,783
24,151,Nonmatching,Friend,Self,1,494
24,152,Nonmatching,Friend,Friend,1,395
24,153,Matching,Friend,Self,1,537
24,154,Matching,Friend,Self,1,557
24,155,Nonmatching,Friend,Self,1,441
4,199,Matching,Self,Friend,0,795
24,157,Nonmatching,Friend,Self,1,365
24,158,Nonmatching,Friend,Self,1,344
24,159,Nonmatching,Friend,Self,1,360
24,160,Nonmatching,Friend,Self,1,391
24,161,Nonmatching,Friend,Self,1,379
5,1,Nonmatching,Friend,Self,0,475
24,163,Nonmatching,Friend,Self,1,349
24,164,Matching,Friend,Self,1,596
24,165,Nonmatching,Friend,Friend,1,261
24,166,Nonmatching,Friend,Self,1,336
24,167,Nonmatching,Friend,Self,1,438
24,168,Matching,Friend,Self,1,381
24,169,Nonmatching,Friend,Self,1,238
24,170,Nonmatching,Friend,Self,1,403
24,171,Matching,Friend,Self,1,350
24,172,Nonmatching,Friend,Self,1,228
24,173,Nonmatching,Friend,Self,1,243
24,174,Nonmatching,Friend,Self,1,396
24,175,Nonmatching,Friend,Self,1,374
24,176,Nonmatching,Friend,Self,1,244
5,13,Matching,Friend,Self,0,467
24,178,Nonmatching,Friend,Self,1,223
5,14,Matching,Friend,Friend,0,886
24,180,Nonmatching,Friend,Self,1,582
5,15,Matching,Friend,Self,0,536
5,19,Nonmatching,Friend,Friend,0,517
24,183,Nonmatching,Friend,Friend,1,495
24,184,Nonmatching,Friend,Self,1,395
24,185,Nonmatching,Friend,Self,1,294
24,186,Matching,Friend,Self,1,411
5,24,Matching,Friend,Friend,0,370
5,29,Matching,Friend,Self,0,467
24,189,Nonmatching,Friend,Self,1,339
5,31,Matching,Friend,Friend,0,481
5,32,Nonmatching,Friend,Friend,0,717
5,42,Matching,Friend,Self,0,803
24,193,Matching,Friend,Self,1,420
24,194,Nonmatching,Friend,Self,1,380
5,43,Nonmatching,Friend,Self,0,984
24,196,Matching,Friend,Self,1,531
24,197,Nonmatching,Friend,Self,1,359
24,198,Nonmatching,Friend,Self,1,258
5,49,Matching,Friend,Self,0,944
24,200,Nonmatching,Friend,Self,1,375
24,1,Nonmatching,Self,Self,1,918
5,51,Nonmatching,Friend,Friend,0,525
5,56,Matching,Friend,Friend,0,1082
24,4,Nonmatching,Self,Friend,1,482
24,5,Nonmatching,Self,Self,1,867
24,6,Nonmatching,Self,Self,1,335
24,7,Nonmatching,Self,Self,1,451
24,8,Nonmatching,Self,Self,1,374
24,9,Nonmatching,Self,Friend,1,517
24,10,Nonmatching,Self,Friend,1,315
5,62,Nonmatching,Friend,Friend,0,618
24,12,Nonmatching,Self,Friend,1,284
24,13,Nonmatching,Self,Friend,1,316
5,82,Matching,Friend,Self,0,633
24,15,Nonmatching,Self,Friend,1,290
5,83,Matching,Friend,Self,0,626
5,84,Nonmatching,Friend,Friend,0,647
5,85,Matching,Friend,Self,0,1027
5,90,Matching,Friend,Friend,0,646
5,102,Matching,Friend,Self,0,516
5,105,Nonmatching,Friend,Self,0,510
5,109,Nonmatching,Friend,Friend,0,598
5,110,Matching,Friend,Self,0,1079
24,24,Nonmatching,Self,Self,1,279
24,25,Nonmatching,Self,Self,1,408
5,113,Matching,Friend,Self,0,745
24,27,Nonmatching,Self,Self,1,598
24,28,Matching,Self,Self,1,572
5,116,Matching,Friend,Friend,0,563
24,30,Nonmatching,Self,Friend,1,415
24,31,Nonmatching,Self,Friend,1,288
24,32,Nonmatching,Self,Friend,1,330
24,33,Nonmatching,Self,Self,1,330
5,122,Nonmatching,Friend,Friend,0,578
24,35,Nonmatching,Self,Friend,1,373
24,36,Nonmatching,Self,Friend,1,386
5,146,Nonmatching,Friend,Self,0,437
5,148,Nonmatching,Friend,Friend,0,584
24,39,Matching,Self,Self,1,467
24,40,Nonmatching,Self,Self,1,515
24,41,Nonmatching,Self,Friend,1,395
5,149,Matching,Friend,Self,0,464
5,151,Nonmatching,Friend,Self,0,785
5,152,Nonmatching,Friend,Friend,0,696
24,45,Nonmatching,Self,Friend,1,317
24,46,Nonmatching,Self,Friend,1,524
24,47,Nonmatching,Self,Friend,1,250
5,154,Matching,Friend,Self,0,816
5,157,Nonmatching,Friend,Friend,0,502
24,50,Nonmatching,Self,Self,1,480
5,158,Matching,Friend,Friend,0,840
5,161,Matching,Friend,Friend,0,868
24,53,Nonmatching,Self,Friend,1,540
5,162,Nonmatching,Friend,Self,0,1003
24,55,Nonmatching,Self,Friend,1,348
5,167,Nonmatching,Friend,Self,0,867
24,57,Nonmatching,Self,Self,1,361
24,58,Nonmatching,Self,Self,1,269
24,59,Nonmatching,Self,Friend,1,307
5,169,Matching,Friend,Self,0,817
5,170,Nonmatching,Friend,Self,0,846
24,62,Nonmatching,Self,Friend,1,451
24,63,Nonmatching,Self,Friend,1,288
5,172,Nonmatching,Friend,Friend,0,566
24,65,Nonmatching,Self,Friend,1,308
24,66,Nonmatching,Self,Friend,1,268
24,67,Nonmatching,Self,Friend,1,271
5,174,Matching,Friend,Friend,0,838
24,69,Nonmatching,Self,Friend,1,311
5,180,Nonmatching,Friend,Friend,0,652
5,182,Nonmatching,Friend,Friend,0,706
5,190,Nonmatching,Friend,Friend,0,517
24,73,Matching,Self,Self,1,572
5,192,Nonmatching,Friend,Self,0,1040
5,194,Nonmatching,Friend,Friend,0,523
5,1,Nonmatching,Self,Friend,0,595
5,2,Matching,Self,Friend,0,645
5,3,Nonmatching,Self,Friend,0,799
24,79,Nonmatching,Self,Friend,1,296
24,80,Nonmatching,Self,Friend,1,312
24,81,Nonmatching,Self,Friend,1,379
5,8,Nonmatching,Self,Friend,0,591
24,83,Nonmatching,Self,Friend,1,344
24,84,Nonmatching,Self,Friend,1,313
24,85,Nonmatching,Self,Self,1,241
24,86,Nonmatching,Self,Friend,1,447
5,11,Matching,Self,Friend,0,465
24,88,Nonmatching,Self,Friend,1,468
5,16,Matching,Self,Friend,0,475
5,17,Matching,Self,Friend,0,364
24,92,Nonmatching,Self,Friend,1,828
5,21,Nonmatching,Self,Friend,0,530
24,94,Nonmatching,Self,Friend,1,283
5,26,Matching,Self,Friend,0,493
5,27,Nonmatching,Self,Friend,0,692
24,97,Matching,Self,Self,1,363
24,98,Nonmatching,Self,Friend,1,331
5,29,Nonmatching,Self,Self,0,437
24,100,Nonmatching,Self,Friend,1,237
24,101,Nonmatching,Self,Self,1,244
24,102,Nonmatching,Self,Friend,1,264
5,35,Matching,Self,Self,0,517
24,104,Nonmatching,Self,Friend,1,296
24,105,Nonmatching,Self,Friend,1,310
5,36,Nonmatching,Self,Friend,0,692
24,107,Matching,Self,Self,1,508
24,108,Nonmatching,Self,Friend,1,304
24,109,Nonmatching,Self,Self,1,281
5,38,Nonmatching,Self,Self,0,542
5,40,Matching,Self,Self,0,725
24,112,Nonmatching,Self,Friend,1,234
5,42,Nonmatching,Self,Friend,0,497
24,114,Nonmatching,Self,Self,1,409
5,53,Matching,Self,Friend,0,424
5,59,Nonmatching,Self,Self,0,299
5,61,Matching,Self,Self,0,456
5,62,Matching,Self,Friend,0,404
5,65,Nonmatching,Self,Friend,0,311
24,120,Nonmatching,Self,Self,1,259
5,66,Matching,Self,Self,0,472
5,67,Matching,Self,Friend,0,534
5,68,Nonmatching,Self,Friend,0,530
24,124,Nonmatching,Self,Friend,1,305
24,125,Matching,Self,Self,1,352
24,126,Nonmatching,Self,Friend,1,310
24,127,Nonmatching,Self,Friend,1,257
5,69,Matching,Self,Friend,0,327
24,129,Nonmatching,Self,Friend,1,250
24,130,Nonmatching,Self,Friend,1,289
5,70,Nonmatching,Self,Friend,0,440
5,71,Matching,Self,Friend,0,627
5,72,Nonmatching,Self,Friend,0,1066
24,134,Nonmatching,Self,Friend,1,343
5,73,Matching,Self,Self,0,1017
5,75,Nonmatching,Self,Friend,0,416
24,137,Nonmatching,Self,Friend,1,421
5,77,Matching,Self,Friend,0,530
24,141,Nonmatching,Self,Friend,1,533
24,142,Nonmatching,Self,Friend,1,259
24,143,Nonmatching,Self,Friend,1,453
24,144,Nonmatching,Self,Friend,1,365
5,78,Matching,Self,Self,0,648
5,81,Matching,Self,Friend,0,598
5,82,Nonmatching,Self,Friend,0,642
24,148,Nonmatching,Self,Self,1,395
24,149,Nonmatching,Self,Friend,1,734
5,95,Matching,Self,Self,0,449
5,96,Nonmatching,Self,Friend,0,301
24,152,Nonmatching,Self,Friend,1,538
5,97,Nonmatching,Self,Friend,0,505
5,101,Matching,Self,Friend,0,516
5,102,Nonmatching,Self,Friend,0,228
24,156,Nonmatching,Self,Friend,1,393
5,104,Matching,Self,Friend,0,299
5,105,Matching,Self,Friend,0,541
24,159,Nonmatching,Self,Friend,1,390
24,160,Nonmatching,Self,Friend,1,281
5,106,Matching,Self,Friend,0,292
24,162,Nonmatching,Self,Friend,1,305
5,108,Nonmatching,Self,Friend,0,610
5,109,Nonmatching,Self,Friend,0,485
5,113,Nonmatching,Self,Friend,0,304
5,118,Matching,Self,Friend,0,265
24,167,Matching,Self,Self,1,633
24,168,Nonmatching,Self,Friend,1,426
5,120,Nonmatching,Self,Self,0,415
24,170,Nonmatching,Self,Self,1,318
24,171,Matching,Self,Self,1,466
24,172,Nonmatching,Self,Self,1,270
24,173,Nonmatching,Self,Friend,1,285
24,174,Nonmatching,Self,Friend,1,320
5,126,Nonmatching,Self,Self,0,572
24,176,Nonmatching,Self,Self,1,583
24,177,Nonmatching,Self,Friend,1,276
24,178,Matching,Self,Self,1,615
24,180,Nonmatching,Self,Friend,1,274
24,181,Nonmatching,Self,Friend,1,262
24,182,Nonmatching,Self,Friend,1,298
5,130,Nonmatching,Self,Friend,0,233
24,184,Matching,Self,Self,1,518
24,185,Nonmatching,Self,Friend,1,259
5,134,Nonmatching,Self,Self,0,408
24,188,Nonmatching,Self,Friend,1,229
5,136,Nonmatching,Self,Self,0,412
24,190,Nonmatching,Self,Friend,1,326
24,191,Nonmatching,Self,Friend,1,272
24,192,Matching,Self,Self,1,521
24,193,Nonmatching,Self,Friend,1,209
5,138,Matching,Self,Friend,0,500
5,146,Nonmatching,Self,Friend,0,318
24,196,Nonmatching,Self,Self,1,262
5,148,Matching,Self,Self,0,329
24,198,Matching,Self,Self,1,470
24,199,Nonmatching,Self,Friend,1,233
24,200,Nonmatching,Self,Friend,1,261
21,1,Matching,Friend,Self,1,528
21,2,Nonmatching,Friend,Friend,1,650
5,151,Matching,Self,Friend,0,479
21,4,Nonmatching,Friend,Self,1,529
21,5,Matching,Friend,Self,1,491
5,152,Nonmatching,Self,Friend,0,346
21,7,Nonmatching,Friend,Self,1,560
21,8,Nonmatching,Friend,Self,1,469
5,155,Nonmatching,Self,Friend,0,589
21,10,Matching,Friend,Self,1,458
21,11,Nonmatching,Friend,Friend,1,535
21,12,Matching,Friend,Self,1,365
21,13,Nonmatching,Friend,Self,1,436
5,158,Matching,Self,Self,0,418
21,15,Matching,Friend,Self,1,686
21,16,Matching,Friend,Self,1,396
21,17,Nonmatching,Friend,Self,1,459
21,18,Matching,Friend,Self,1,432
21,19,Matching,Friend,Self,1,350
21,20,Matching,Friend,Self,1,368
21,21,Matching,Friend,Self,1,495
21,22,Nonmatching,Friend,Self,1,422
21,23,Matching,Friend,Friend,1,656
5,159,Nonmatching,Self,Friend,0,361
21,25,Nonmatching,Friend,Self,1,569
5,160,Matching,Self,Self,0,719
5,162,Nonmatching,Self,Friend,0,335
5,163,Nonmatching,Self,Self,0,728
21,29,Matching,Friend,Self,1,588
5,166,Nonmatching,Self,Friend,0,474
21,31,Matching,Friend,Self,1,472
21,32,Matching,Friend,Self,1,524
21,33,Nonmatching,Friend,Friend,1,648
21,34,Nonmatching,Friend,Friend,1,389
21,35,Matching,Friend,Friend,1,441
21,36,Nonmatching,Friend,Self,1,340
21,37,Matching,Friend,Self,1,456
5,170,Matching,Self,Friend,0,282
21,39,Matching,Friend,Self,1,442
21,40,Matching,Friend,Friend,1,483
21,41,Matching,Friend,Self,1,391
5,175,Matching,Self,Self,0,600
5,176,Nonmatching,Self,Friend,0,438
21,44,Matching,Friend,Self,1,405
21,45,Matching,Friend,Self,1,484
5,180,Nonmatching,Self,Friend,0,231
5,181,Nonmatching,Self,Friend,0,409
21,48,Nonmatching,Friend,Self,1,588
21,49,Matching,Friend,Self,1,355
5,185,Nonmatching,Self,Friend,0,466
5,186,Nonmatching,Self,Friend,0,471
5,194,Nonmatching,Self,Friend,0,348
21,53,Matching,Friend,Self,1,425
21,54,Nonmatching,Friend,Self,1,436
21,55,Matching,Friend,Friend,1,446
5,195,Nonmatching,Self,Self,0,500
5,196,Matching,Self,Friend,0,291
5,197,Nonmatching,Self,Friend,0,251
5,198,Matching,Self,Friend,0,404
21,60,Matching,Friend,Friend,1,382
21,61,Matching,Friend,Self,1,537
6,5,Nonmatching,Self,Friend,0,532
21,63,Matching,Friend,Self,1,530
21,64,Nonmatching,Friend,Self,1,453
21,65,Matching,Friend,Self,1,528
21,66,Matching,Friend,Self,1,530
21,67,Matching,Friend,Self,1,322
6,6,Matching,Self,Friend,0,532
6,13,Nonmatching,Self,Self,0,529
21,70,Matching,Friend,Self,1,542
21,71,Matching,Friend,Self,1,369
6,15,Matching,Self,Friend,0,672
21,73,Matching,Friend,Self,1,278
21,74,Matching,Friend,Self,1,348
21,75,Matching,Friend,Self,1,359
21,76,Nonmatching,Friend,Self,1,485
6,18,Matching,Self,Friend,0,547
21,78,Matching,Friend,Self,1,442
21,79,Matching,Friend,Self,1,406
6,20,Nonmatching,Self,Friend,0,511
6,21,Nonmatching,Self,Friend,0,600
6,23,Matching,Self,Friend,0,561
21,83,Matching,Friend,Self,1,488
6,25,Matching,Self,Friend,0,681
6,30,Matching,Self,Self,0,623
21,86,Matching,Friend,Self,1,538
21,87,Matching,Friend,Friend,1,623
6,34,Nonmatching,Self,Friend,0,630
21,89,Nonmatching,Friend,Self,1,530
21,90,Nonmatching,Friend,Self,1,432
21,91,Matching,Friend,Self,1,566
21,92,Matching,Friend,Self,1,625
21,93,Matching,Friend,Self,1,476
21,94,Nonmatching,Friend,Self,1,497
21,95,Matching,Friend,Self,1,514
21,96,Nonmatching,Friend,Self,1,553
6,36,Nonmatching,Self,Friend,0,638
6,46,Matching,Self,Self,0,615
21,99,Matching,Friend,Friend,1,435
6,47,Nonmatching,Self,Friend,0,801
6,53,Matching,Self,Self,0,519
6,57,Nonmatching,Self,Friend,0,510
21,103,Matching,Friend,Friend,1,413
6,58,Nonmatching,Self,Self,0,818
6,61,Matching,Self,Self,0,415
6,68,Matching,Self,Friend,0,595
6,69,Nonmatching,Self,Friend,0,627
21,108,Matching,Friend,Self,1,590
21,109,Nonmatching,Friend,Friend,1,516
6,74,Nonmatching,Self,Friend,0,962
21,111,Matching,Friend,Self,1,664
21,112,Matching,Friend,Self,1,486
21,113,Nonmatching,Friend,Self,1,422
21,114,Matching,Friend,Self,1,570
21,115,Matching,Friend,Self,1,520
6,78,Matching,Self,Friend,0,541
6,80,Nonmatching,Self,Self,0,481
6,81,Matching,Self,Self,0,786
6,90,Nonmatching,Self,Self,0,761
6,97,Nonmatching,Self,Friend,0,563
21,121,Matching,Friend,Friend,1,520
21,122,Matching,Friend,Friend,1,599
21,123,Nonmatching,Friend,Self,1,624
21,124,Nonmatching,Friend,Self,1,576
6,106,Matching,Self,Friend,0,657
6,112,Matching,Self,Friend,0,505
6,114,Nonmatching,Self,Friend,0,553
6,115,Matching,Self,Friend,0,523
21,129,Matching,Friend,Friend,1,625
6,116,Nonmatching,Self,Friend,0,777
6,121,Matching,Self,Friend,0,615
6,124,Matching,Self,Friend,0,462
6,128,Matching,Self,Self,0,433
21,134,Matching,Friend,Friend,1,620
21,135,Matching,Friend,Self,1,536
21,136,Matching,Friend,Self,1,665
21,137,Matching,Friend,Self,1,513
21,138,Matching,Friend,Self,1,435
21,139,Nonmatching,Friend,Self,1,474
21,140,Matching,Friend,Self,1,502
21,141,Nonmatching,Friend,Friend,1,602
6,129,Nonmatching,Self,Friend,0,968
21,143,Matching,Friend,Self,1,469
21,144,Matching,Friend,Friend,1,541
21,145,Matching,Friend,Self,1,547
6,131,Nonmatching,Self,Self,0,609
6,134,Matching,Self,Self,0,508
21,148,Nonmatching,Friend,Friend,1,515
21,149,Nonmatching,Friend,Self,1,656
21,150,Nonmatching,Friend,Self,1,569
21,151,Matching,Friend,Self,1,479
21,152,Nonmatching,Friend,Self,1,492
6,139,Matching,Self,Friend,0,632
6,154,Nonmatching,Self,Self,0,658
6,160,Matching,Self,Self,0,882
6,168,Nonmatching,Self,Self,0,574
21,157,Nonmatching,Friend,Friend,1,505
21,158,Nonmatching,Friend,Self,1,544
6,170,Nonmatching,Self,Friend,0,601
21,160,Nonmatching,Friend,Self,1,522
21,161,Matching,Friend,Self,1,573
21,162,Matching,Friend,Self,1,565
6,183,Matching,Self,Self,0,424
6,194,Nonmatching,Self,Friend,0,449
21,165,Nonmatching,Friend,Self,1,613
6,195,Nonmatching,Self,Friend,0,449
6,2,Nonmatching,Friend,Self,0,551
6,7,Matching,Friend,Self,0,662
6,10,Matching,Friend,Self,0,556
21,170,Nonmatching,Friend,Self,1,590
6,17,Nonmatching,Friend,Friend,0,513
21,172,Nonmatching,Friend,Friend,1,671
21,173,Nonmatching,Friend,Self,1,527
21,174,Nonmatching,Friend,Friend,1,420
6,18,Matching,Friend,Self,0,516
6,21,Nonmatching,Friend,Friend,0,368
21,177,Matching,Friend,Self,1,534
21,178,Nonmatching,Friend,Self,1,546
21,179,Matching,Friend,Friend,1,627
6,25,Matching,Friend,Self,0,538
6,30,Matching,Friend,Self,0,487
21,182,Matching,Friend,Self,1,609
21,183,Nonmatching,Friend,Self,1,524
21,184,Matching,Friend,Self,1,529
6,31,Nonmatching,Friend,Self,0,552
6,45,Nonmatching,Friend,Self,0,588
21,187,Nonmatching,Friend,Self,1,564
6,61,Nonmatching,Friend,Friend,0,649
21,189,Nonmatching,Friend,Self,1,772
21,190,Nonmatching,Friend,Self,1,511
21,191,Nonmatching,Friend,Self,1,448
21,192,Nonmatching,Friend,Self,1,442
21,193,Nonmatching,Friend,Self,1,601
6,63,Nonmatching,Friend,Friend,0,390
21,195,Nonmatching,Friend,Self,1,431
21,196,Nonmatching,Friend,Self,1,639
21,197,Nonmatching,Friend,Self,1,658
21,198,Nonmatching,Friend,Self,1,667
21,199,Matching,Friend,Self,1,490
21,200,Matching,Friend,Self,1,511
6,73,Matching,Friend,Self,0,512
21,2,Matching,Self,Friend,1,520
6,87,Nonmatching,Friend,Friend,0,393
6,92,Nonmatching,Friend,Friend,0,406
21,5,Matching,Self,Friend,1,460
6,96,Nonmatching,Friend,Friend,0,619
21,7,Matching,Self,Friend,1,614
21,8,Matching,Self,Friend,1,668
21,9,Matching,Self,Friend,1,516
6,99,Matching,Friend,Friend,0,461
21,11,Matching,Self,Self,1,480
21,12,Matching,Self,Self,1,388
6,100,Nonmatching,Friend,Friend,0,709
6,103,Nonmatching,Friend,Friend,0,439
21,15,Nonmatching,Self,Friend,1,443
21,16,Nonmatching,Self,Friend,1,460
21,17,Nonmatching,Self,Friend,1,518
21,18,Nonmatching,Self,Friend,1,410
21,19,Nonmatching,Self,Friend,1,432
21,20,Nonmatching,Self,Self,1,263
21,21,Matching,Self,Self,1,781
21,22,Nonmatching,Self,Friend,1,644
21,23,Nonmatching,Self,Friend,1,440
21,24,Matching,Self,Friend,1,628
6,107,Matching,Friend,Self,0,495
21,26,Nonmatching,Self,Friend,1,653
21,27,Matching,Self,Friend,1,524
21,28,Matching,Self,Friend,1,547
21,29,Matching,Self,Friend,1,466
21,30,Matching,Self,Friend,1,552
21,31,Matching,Self,Friend,1,763
21,32,Matching,Self,Friend,1,453
6,108,Nonmatching,Friend,Self,0,709
21,34,Matching,Self,Friend,1,618
6,112,Nonmatching,Friend,Friend,0,360
6,128,Nonmatching,Friend,Self,0,450
21,37,Matching,Self,Self,1,680
21,38,Nonmatching,Self,Friend,1,509
21,39,Nonmatching,Self,Friend,1,637
21,40,Matching,Self,Friend,1,401
21,41,Nonmatching,Self,Friend,1,605
21,42,Nonmatching,Self,Friend,1,524
6,135,Nonmatching,Friend,Self,0,490
6,138,Nonmatching,Friend,Friend,0,463
21,45,Nonmatching,Self,Friend,1,609
21,46,Matching,Self,Friend,1,590
21,47,Nonmatching,Self,Friend,1,625
21,48,Matching,Self,Self,1,434
21,49,Nonmatching,Self,Friend,1,534
21,50,Matching,Self,Self,1,381
6,141,Nonmatching,Friend,Friend,0,478
6,144,Matching,Friend,Self,0,439
6,151,Nonmatching,Friend,Friend,0,393
21,54,Matching,Self,Friend,1,602
21,55,Matching,Self,Friend,1,487
21,56,Nonmatching,Self,Self,1,559
6,153,Matching,Friend,Friend,0,597
21,58,Matching,Self,Friend,1,541
21,59,Matching,Self,Friend,1,422
21,60,Matching,Self,Friend,1,428
21,61,Nonmatching,Self,Self,1,452
6,156,Matching,Friend,Self,0,441
6,159,Matching,Friend,Friend,0,441
21,64,Nonmatching,Self,Friend,1,686
21,65,Nonmatching,Self,Self,1,585
6,161,Matching,Friend,Friend,0,489
21,67,Matching,Self,Self,1,540
6,164,Nonmatching,Friend,Self,0,437
6,165,Nonmatching,Friend,Friend,0,573
21,70,Matching,Self,Friend,1,544
21,71,Nonmatching,Self,Friend,1,543
6,180,Matching,Friend,Friend,0,536
21,73,Matching,Self,Friend,1,502
21,74,Matching,Self,Self,1,634
21,75,Nonmatching,Self,Friend,1,792
6,182,Nonmatching,Friend,Friend,0,459
6,193,Nonmatching,Friend,Self,0,429
6,196,Matching,Friend,Friend,0,573
6,198,Matching,Friend,Self,0,595
6,200,Nonmatching,Friend,Self,0,466
21,82,Nonmatching,Self,Friend,1,380
21,83,Matching,Self,Friend,1,456
21,84,Matching,Self,Friend,1,439
21,85,Matching,Self,Friend,1,396
21,86,Matching,Self,Friend,1,408
21,87,Nonmatching,Self,Self,1,413
7,15,Nonmatching,Self,Self,0,590
7,17,Matching,Self,Self,0,538
21,90,Matching,Self,Self,1,600
21,91,Matching,Self,Friend,1,675
21,92,Matching,Self,Friend,1,512
21,93,Matching,Self,Friend,1,417
7,21,Nonmatching,Self,Self,0,520
7,22,Nonmatching,Self,Friend,0,720
7,25,Matching,Self,Self,0,636
7,26,Nonmatching,Self,Friend,0,1007
21,98,Matching,Self,Friend,1,662
21,99,Matching,Self,Friend,1,438
7,28,Nonmatching,Self,Friend,0,510
21,101,Nonmatching,Self,Self,1,446
21,102,Matching,Self,Friend,1,473
7,30,Nonmatching,Self,Self,0,630
21,104,Nonmatching,Self,Friend,1,460
7,44,Nonmatching,Self,Friend,0,587
21,106,Matching,Self,Friend,1,660
21,107,Nonmatching,Self,Self,1,520
21,108,Matching,Self,Self,1,505
21,109,Nonmatching,Self,Friend,1,464
21,110,Nonmatching,Self,Friend,1,425
21,111,Matching,Self,Friend,1,489
21,112,Nonmatching,Self,Friend,1,564
7,45,Matching,Self,Friend,0,639
21,114,Matching,Self,Friend,1,431
21,115,Nonmatching,Self,Friend,1,499
21,116,Matching,Self,Friend,1,466
21,117,Matching,Self,Friend,1,441
21,118,Matching,Self,Friend,1,421
7,48,Matching,Self,Friend,0,684
21,120,Matching,Self,Friend,1,439
21,121,Matching,Self,Friend,1,338
7,53,Matching,Self,Friend,0,391
21,123,Matching,Self,Self,1,521
7,54,Nonmatching,Self,Friend,0,706
21,125,Nonmatching,Self,Friend,1,533
21,126,Matching,Self,Friend,1,400
7,56,Nonmatching,Self,Self,0,520
21,128,Nonmatching,Self,Self,1,581
7,57,Nonmatching,Self,Friend,0,766
21,130,Nonmatching,Self,Friend,1,568
21,131,Nonmatching,Self,Friend,1,467
21,132,Matching,Self,Friend,1,514
21,133,Nonmatching,Self,Friend,1,485
7,65,Matching,Self,Friend,0,756
21,135,Matching,Self,Friend,1,537
21,136,Nonmatching,Self,Friend,1,488
21,137,Nonmatching,Self,Self,1,455
7,67,Matching,Self,Self,0,549
21,139,Matching,Self,Self,1,458
21,140,Matching,Self,Self,1,438
7,68,Nonmatching,Self,Friend,0,564
21,142,Nonmatching,Self,Friend,1,647
21,143,Matching,Self,Self,1,556
21,144,Matching,Self,Friend,1,455
7,70,Matching,Self,Friend,0,593
7,72,Matching,Self,Self,0,402
21,147,Nonmatching,Self,Self,1,607
21,148,Nonmatching,Self,Friend,1,636
7,74,Nonmatching,Self,Self,0,656
21,150,Matching,Self,Friend,1,587
21,151,Matching,Self,Friend,1,531
21,152,Nonmatching,Self,Friend,1,457
21,153,Matching,Self,Friend,1,466
21,154,Nonmatching,Self,Friend,1,468
21,155,Nonmatching,Self,Self,1,604
21,156,Matching,Self,Friend,1,551
21,157,Matching,Self,Friend,1,446
21,158,Nonmatching,Self,Friend,1,543
21,159,Nonmatching,Self,Friend,1,536
21,160,Nonmatching,Self,Friend,1,607
7,84,Nonmatching,Self,Friend,0,420
21,162,Nonmatching,Self,Friend,1,604
21,163,Matching,Self,Friend,1,550
21,164,Matching,Self,Friend,1,418
21,165,Nonmatching,Self,Friend,1,459
21,166,Nonmatching,Self,Self,1,580
21,167,Nonmatching,Self,Friend,1,567
7,85,Nonmatching,Self,Self,0,427
21,169,Nonmatching,Self,Self,1,481
7,87,Matching,Self,Self,0,606
21,171,Nonmatching,Self,Friend,1,548
21,172,Nonmatching,Self,Friend,1,531
21,173,Matching,Self,Friend,1,417
21,174,Matching,Self,Friend,1,419
21,175,Nonmatching,Self,Friend,1,451
21,176,Nonmatching,Self,Friend,1,413
21,177,Matching,Self,Friend,1,603
21,178,Matching,Self,Friend,1,412
21,179,Matching,Self,Friend,1,457
21,180,Matching,Self,Friend,1,428
21,181,Matching,Self,Friend,1,442
21,182,Matching,Self,Friend,1,609
21,183,Nonmatching,Self,Self,1,443
21,184,Nonmatching,Self,Friend,1,609
21,185,Nonmatching,Self,Self,1,627
21,186,Nonmatching,Self,Friend,1,489
21,187,Matching,Self,Friend,1,394
21,188,Matching,Self,Friend,1,425
21,189,Matching,Self,Friend,1,486
21,190,Nonmatching,Self,Friend,1,455
7,88,Matching,Self,Friend,0,449
21,192,Nonmatching,Self,Friend,1,985
7,92,Matching,Self,Self,0,647
7,94,Matching,Self,Friend,0,445
7,98,Matching,Self,Self,0,524
7,99,Matching,Self,Friend,0,853
21,197,Nonmatching,Self,Friend,1,959
21,198,Matching,Self,Friend,1,620
21,199,Nonmatching,Self,Friend,1,521
21,200,Nonmatching,Self,Friend,1,449
7,105,Nonmatching,Self,Friend,0,703
7,114,Matching,Self,Self,0,426
7,115,Nonmatching,Self,Friend,0,598
17,10,Matching,Friend,Self,1,281
17,13,Nonmatching,Friend,Self,1,261
7,126,Matching,Self,Self,0,570
7,127,Nonmatching,Self,Friend,0,654
17,19,Matching,Friend,Self,1,281
7,130,Nonmatching,Self,Friend,0,749
7,132,Nonmatching,Self,Friend,0,587
7,133,Matching,Self,Friend,0,765
17,27,Nonmatching,Friend,Friend,1,490
17,29,Nonmatching,Friend,Friend,1,400
7,134,Matching,Self,Self,0,553
17,33,Matching,Friend,Self,1,262
17,35,Matching,Friend,Self,1,530
7,138,Matching,Self,Self,0,476
17,39,Nonmatching,Friend,Self,1,251
7,142,Matching,Self,Friend,0,426
17,43,Nonmatching,Friend,Friend,1,495
7,146,Matching,Self,Self,0,596
7,151,Nonmatching,Self,Friend,0,703
17,49,Matching,Friend,Self,1,427
7,159,Matching,Self,Self,0,360
7,166,Nonmatching,Self,Self,0,371
7,169,Matching,Self,Friend,0,447
7,170,Nonmatching,Self,Friend,0,425
17,61,Matching,Friend,Self,1,341
17,63,Matching,Friend,Self,1,760
17,65,Matching,Friend,Self,1,275
17,67,Matching,Friend,Self,1,224
7,176,Nonmatching,Self,Self,0,356
7,180,Nonmatching,Self,Self,0,395
7,182,Nonmatching,Self,Friend,0,413
7,184,Nonmatching,Self,Self,0,582
17,80,Nonmatching,Friend,Self,1,278
7,185,Matching,Self,Friend,0,892
7,190,Matching,Self,Friend,0,426
7,192,Nonmatching,Self,Friend,0,622
7,3,Nonmatching,Friend,Friend,0,538
7,11,Matching,Friend,Self,0,690
17,94,Matching,Friend,Self,1,583
17,96,Matching,Friend,Self,1,724
7,12,Matching,Friend,Friend,0,656
17,102,Matching,Friend,Friend,1,260
7,13,Nonmatching,Friend,Self,0,766
17,105,Matching,Friend,Self,1,616
7,14,Nonmatching,Friend,Friend,0,357
17,108,Nonmatching,Friend,Self,1,206
17,111,Nonmatching,Friend,Friend,1,316
7,15,Nonmatching,Friend,Self,0,395
7,16,Nonmatching,Friend,Self,0,668
17,117,Matching,Friend,Self,1,312
7,26,Matching,Friend,Friend,0,376
7,28,Nonmatching,Friend,Self,0,355
7,32,Matching,Friend,Self,0,502
17,127,Matching,Friend,Self,1,472
17,128,Matching,Friend,Self,1,664
7,37,Matching,Friend,Friend,0,468
17,134,Matching,Friend,Self,1,408
17,137,Matching,Friend,Self,1,266
17,139,Matching,Friend,Self,1,363
17,141,Matching,Friend,Self,1,243
17,144,Nonmatching,Friend,Friend,1,389
17,146,Nonmatching,Friend,Self,1,939
7,48,Nonmatching,Friend,Self,0,378
7,49,Matching,Friend,Self,0,257
17,152,Matching,Friend,Self,1,305
7,50,Nonmatching,Friend,Friend,0,268
7,54,Nonmatching,Friend,Self,0,503
7,56,Nonmatching,Friend,Friend,0,765
17,164,Matching,Friend,Friend,1,625
17,168,Nonmatching,Friend,Friend,1,517
17,170,Matching,Friend,Friend,1,300
7,57,Matching,Friend,Self,0,710
17,174,Nonmatching,Friend,Self,1,692
17,176,Nonmatching,Friend,Self,1,977
7,59,Nonmatching,Friend,Self,0,200
7,61,Nonmatching,Friend,Friend,0,264
17,184,Nonmatching,Friend,Friend,1,290
7,62,Matching,Friend,Self,0,400
7,63,Matching,Friend,Friend,0,701
17,194,Nonmatching,Friend,Self,1,255
7,69,Matching,Friend,Friend,0,333
17,2,Nonmatching,Self,Friend,1,382
17,6,Nonmatching,Self,Self,1,353
17,9,Matching,Self,Friend,1,338
17,14,Matching,Self,Friend,1,416
17,16,Matching,Self,Friend,1,385
7,71,Nonmatching,Friend,Self,0,313
17,24,Matching,Self,Friend,1,230
17,26,Matching,Self,Friend,1,286
7,74,Nonmatching,Friend,Self,0,364
17,30,Matching,Self,Self,1,268
7,75,Nonmatching,Friend,Friend,0,317
7,76,Nonmatching,Friend,Self,0,586
17,40,Matching,Self,Friend,1,293
7,81,Nonmatching,Friend,Self,0,388
7,84,Nonmatching,Friend,Friend,0,233
17,48,Nonmatching,Self,Friend,1,247
7,86,Matching,Friend,Self,0,492
17,51,Nonmatching,Self,Friend,1,1031
17,52,Matching,Self,Self,1,1057
7,87,Matching,Friend,Self,0,369
7,89,Nonmatching,Friend,Self,0,220
7,90,Matching,Friend,Self,0,256
17,58,Nonmatching,Self,Friend,1,1031
7,94,Nonmatching,Friend,Friend,0,429
17,62,Matching,Self,Friend,1,612
7,95,Matching,Friend,Self,0,446
17,64,Matching,Self,Friend,1,618
7,101,Nonmatching,Friend,Self,0,256
7,108,Nonmatching,Friend,Friend,0,434
7,110,Matching,Friend,Self,0,425
17,70,Matching,Self,Friend,1,573
17,71,Matching,Self,Friend,1,637
17,72,Matching,Self,Self,1,984
17,73,Matching,Self,Self,1,652
17,74,Nonmatching,Self,Friend,1,943
7,113,Matching,Friend,Self,0,566
17,80,Nonmatching,Self,Friend,1,691
17,81,Matching,Self,Friend,1,873
17,85,Nonmatching,Self,Friend,1,320
17,88,Nonmatching,Self,Friend,1,807
17,89,Matching,Self,Friend,1,744
17,90,Matching,Self,Friend,1,796
7,114,Nonmatching,Friend,Self,0,547
17,94,Nonmatching,Self,Self,1,567
7,115,Matching,Friend,Self,0,424
7,116,Matching,Friend,Friend,0,444
17,98,Nonmatching,Self,Friend,1,360
17,100,Matching,Self,Friend,1,885
17,101,Matching,Self,Friend,1,422
7,118,Matching,Friend,Friend,0,570
17,103,Matching,Self,Friend,1,378
7,125,Matching,Friend,Self,0,550
17,106,Matching,Self,Friend,1,385
7,133,Matching,Friend,Friend,0,456
7,135,Matching,Friend,Self,0,678
7,136,Nonmatching,Friend,Friend,0,454
7,137,Nonmatching,Friend,Self,0,680
17,113,Matching,Self,Friend,1,712
17,114,Nonmatching,Self,Friend,1,614
17,115,Matching,Self,Friend,1,848
17,116,Nonmatching,Self,Friend,1,771
7,142,Matching,Friend,Self,0,423
7,153,Matching,Friend,Self,0,387
17,121,Nonmatching,Self,Friend,1,704
17,122,Nonmatching,Self,Friend,1,583
7,155,Nonmatching,Friend,Self,0,352
17,125,Nonmatching,Self,Friend,1,338
17,127,Nonmatching,Self,Self,1,236
17,128,Matching,Self,Self,1,516
17,129,Nonmatching,Self,Self,1,635
17,130,Nonmatching,Self,Friend,1,783
17,131,Matching,Self,Self,1,960
17,132,Nonmatching,Self,Friend,1,720
17,134,Nonmatching,Self,Self,1,834
17,135,Matching,Self,Friend,1,613
17,136,Nonmatching,Self,Friend,1,456
17,137,Nonmatching,Self,Friend,1,873
17,140,Matching,Self,Friend,1,761
17,142,Matching,Self,Self,1,1038
17,143,Nonmatching,Self,Self,1,685
17,144,Matching,Self,Friend,1,652
17,145,Nonmatching,Self,Friend,1,365
17,147,Matching,Self,Self,1,575
17,148,Nonmatching,Self,Friend,1,552
17,149,Nonmatching,Self,Friend,1,985
17,150,Nonmatching,Self,Friend,1,580
17,152,Nonmatching,Self,Friend,1,284
17,155,Matching,Self,Friend,1,408
17,156,Matching,Self,Friend,1,405
17,157,Nonmatching,Self,Self,1,712
17,158,Nonmatching,Self,Friend,1,834
17,160,Nonmatching,Self,Friend,1,312
7,167,Nonmatching,Friend,Friend,0,286
7,171,Matching,Friend,Self,0,551
17,165,Matching,Self,Self,1,993
17,166,Matching,Self,Friend,1,936
17,167,Nonmatching,Self,Friend,1,618
17,168,Nonmatching,Self,Friend,1,833
7,172,Nonmatching,Friend,Self,0,786
7,176,Matching,Friend,Friend,0,509
17,173,Matching,Self,Friend,1,734
17,174,Nonmatching,Self,Self,1,727
7,177,Matching,Friend,Self,0,629
17,178,Matching,Self,Friend,1,648
17,179,Nonmatching,Self,Self,1,651
17,180,Matching,Self,Friend,1,1046
17,181,Matching,Self,Friend,1,685
17,182,Matching,Self,Self,1,714
17,183,Nonmatching,Self,Friend,1,757
17,185,Nonmatching,Self,Friend,1,707
17,186,Nonmatching,Self,Friend,1,539
17,188,Nonmatching,Self,Friend,1,639
7,178,Nonmatching,Friend,Self,0,437
7,191,Nonmatching,Friend,Self,0,417
17,191,Matching,Self,Friend,1,579
17,192,Nonmatching,Self,Friend,1,665
17,193,Nonmatching,Self,Friend,1,617
17,194,Matching,Self,Self,1,781
17,197,Matching,Self,Self,1,397
7,199,Nonmatching,Friend,Self,0,402
17,199,Matching,Self,Friend,1,860
17,200,Nonmatching,Self,Friend,1,579
13,1,Matching,Friend,Self,1,849
13,2,Matching,Friend,Self,1,433
13,3,Matching,Friend,Self,1,416
13,4,Nonmatching,Friend,Self,1,680
13,5,Nonmatching,Friend,Self,1,488
13,6,Matching,Friend,Self,1,531
13,7,Nonmatching,Friend,Self,1,638
13,8,Nonmatching,Friend,Self,1,543
13,9,Matching,Friend,Self,1,490
13,10,Nonmatching,Friend,Self,1,675
7,200,Nonmatching,Friend,Self,0,428
13,12,Matching,Friend,Self,1,921
8,25,Nonmatching,Friend,Friend,0,844
13,14,Matching,Friend,Self,1,862
13,15,Nonmatching,Friend,Self,1,521
13,16,Matching,Friend,Self,1,687
13,17,Matching,Friend,Self,1,576
13,18,Nonmatching,Friend,Self,1,1049
13,19,Matching,Friend,Self,1,792
8,27,Nonmatching,Friend,Friend,0,297
13,21,Matching,Friend,Self,1,797
13,22,Matching,Friend,Self,1,828
13,23,Matching,Friend,Self,1,585
13,24,Nonmatching,Friend,Friend,1,721
13,25,Nonmatching,Friend,Self,1,810
13,26,Nonmatching,Friend,Self,1,572
13,27,Matching,Friend,Friend,1,700
13,28,Nonmatching,Friend,Self,1,799
13,29,Matching,Friend,Self,1,680
13,30,Nonmatching,Friend,Self,1,691
13,31,Matching,Friend,Self,1,486
13,32,Matching,Friend,Self,1,465
13,33,Matching,Friend,Self,1,526
13,34,Matching,Friend,Self,1,400
13,35,Nonmatching,Friend,Self,1,723
13,36,Nonmatching,Friend,Self,1,816
13,37,Matching,Friend,Self,1,583
13,38,Matching,Friend,Self,1,543
13,39,Matching,Friend,Self,1,478
13,40,Nonmatching,Friend,Friend,1,576
13,41,Matching,Friend,Self,1,460
13,42,Nonmatching,Friend,Self,1,632
13,43,Matching,Friend,Self,1,674
13,44,Nonmatching,Friend,Self,1,544
13,45,Nonmatching,Friend,Self,1,844
13,46,Matching,Friend,Self,1,443
13,47,Nonmatching,Friend,Friend,1,712
13,48,Matching,Friend,Friend,1,877
8,47,Matching,Friend,Friend,0,1008
13,50,Nonmatching,Friend,Friend,1,924
13,51,Matching,Friend,Friend,1,581
13,53,Matching,Friend,Self,1,576
13,54,Nonmatching,Friend,Friend,1,785
13,55,Matching,Friend,Self,1,491
13,56,Nonmatching,Friend,Friend,1,636
13,57,Matching,Friend,Self,1,498
8,61,Matching,Friend,Friend,0,976
13,59,Matching,Friend,Self,1,624
8,76,Matching,Friend,Friend,0,1009
8,78,Nonmatching,Friend,Self,0,950
8,95,Nonmatching,Friend,Self,0,1029
13,63,Matching,Friend,Self,1,680
13,64,Matching,Friend,Self,1,578
13,65,Nonmatching,Friend,Self,1,688
8,100,Nonmatching,Friend,Self,0,671
8,103,Matching,Friend,Friend,0,654
13,68,Nonmatching,Friend,Friend,1,928
13,69,Nonmatching,Friend,Friend,1,726
13,70,Nonmatching,Friend,Friend,1,489
13,71,Nonmatching,Friend,Friend,1,501
13,72,Matching,Friend,Self,1,744
13,73,Nonmatching,Friend,Self,1,565
8,105,Nonmatching,Friend,Self,0,673
13,75,Matching,Friend,Friend,1,662
13,76,Matching,Friend,Self,1,623
13,77,Nonmatching,Friend,Friend,1,681
13,78,Matching,Friend,Self,1,478
13,79,Nonmatching,Friend,Friend,1,567
8,118,Nonmatching,Friend,Friend,0,803
13,81,Nonmatching,Friend,Self,1,740
13,82,Nonmatching,Friend,Self,1,501
13,83,Matching,Friend,Self,1,494
13,84,Nonmatching,Friend,Self,1,621
13,85,Matching,Friend,Friend,1,694
13,86,Matching,Friend,Self,1,732
13,87,Nonmatching,Friend,Friend,1,478
8,121,Matching,Friend,Friend,0,384
13,89,Matching,Friend,Self,1,362
13,90,Nonmatching,Friend,Self,1,604
13,91,Nonmatching,Friend,Self,1,459
13,92,Nonmatching,Friend,Self,1,458
13,93,Nonmatching,Friend,Self,1,450
8,122,Matching,Friend,Friend,0,472
13,95,Nonmatching,Friend,Friend,1,1001
13,96,Nonmatching,Friend,Self,1,867
13,97,Nonmatching,Friend,Self,1,854
13,98,Nonmatching,Friend,Self,1,548
13,99,Nonmatching,Friend,Self,1,410
13,100,Nonmatching,Friend,Self,1,396
13,101,Matching,Friend,Self,1,448
13,102,Matching,Friend,Self,1,575
13,103,Nonmatching,Friend,Self,1,487
13,104,Matching,Friend,Self,1,639
13,105,Nonmatching,Friend,Self,1,658
13,106,Matching,Friend,Self,1,392
13,107,Matching,Friend,Self,1,495
13,108,Nonmatching,Friend,Self,1,383
13,109,Nonmatching,Friend,Self,1,730
13,110,Nonmatching,Friend,Self,1,489
8,131,Nonmatching,Friend,Self,0,394
13,113,Matching,Friend,Self,1,590
8,132,Matching,Friend,Friend,0,206
8,142,Matching,Friend,Friend,0,705
13,117,Matching,Friend,Self,1,448
8,166,Nonmatching,Friend,Self,0,838
8,167,Matching,Friend,Friend,0,730
13,120,Nonmatching,Friend,Self,1,881
8,174,Matching,Friend,Friend,0,891
13,123,Nonmatching,Friend,Self,1,1026
13,124,Matching,Friend,Self,1,665
13,125,Matching,Friend,Self,1,590
13,126,Matching,Friend,Self,1,516
13,127,Matching,Friend,Self,1,306
13,128,Nonmatching,Friend,Self,1,550
13,129,Nonmatching,Friend,Self,1,638
8,181,Matching,Friend,Self,0,586
13,131,Matching,Friend,Friend,1,921
8,197,Nonmatching,Friend,Self,0,641
8,198,Nonmatching,Friend,Self,0,716
13,134,Nonmatching,Friend,Self,1,846
13,135,Nonmatching,Friend,Self,1,627
13,136,Nonmatching,Friend,Self,1,439
13,137,Matching,Friend,Self,1,557
8,15,Matching,Self,Friend,0,889
13,139,Matching,Friend,Self,1,484
8,21,Nonmatching,Self,Friend,0,1057
13,141,Matching,Friend,Self,1,407
13,142,Nonmatching,Friend,Friend,1,532
8,23,Matching,Self,Friend,0,827
13,144,Matching,Friend,Self,1,620
13,145,Matching,Friend,Friend,1,523
13,146,Nonmatching,Friend,Friend,1,786
8,44,Nonmatching,Self,Friend,0,753
13,148,Nonmatching,Friend,Self,1,816
13,149,Nonmatching,Friend,Self,1,385
13,150,Nonmatching,Friend,Self,1,443
8,60,Nonmatching,Self,Friend,0,896
13,152,Matching,Friend,Self,1,873
13,153,Nonmatching,Friend,Self,1,841
13,154,Nonmatching,Friend,Self,1,504
13,155,Matching,Friend,Friend,1,839
8,65,Nonmatching,Self,Self,0,738
13,157,Matching,Friend,Friend,1,926
13,158,Nonmatching,Friend,Self,1,941
13,159,Nonmatching,Friend,Self,1,530
13,160,Nonmatching,Friend,Self,1,466
13,161,Matching,Friend,Friend,1,845
13,163,Matching,Friend,Self,1,625
8,67,Matching,Self,Friend,0,704
13,165,Nonmatching,Friend,Self,1,608
13,166,Matching,Friend,Self,1,536
13,167,Nonmatching,Friend,Self,1,563
13,168,Matching,Friend,Self,1,756
8,70,Nonmatching,Self,Friend,0,701
13,170,Matching,Friend,Self,1,496
13,171,Matching,Friend,Self,1,628
13,172,Matching,Friend,Friend,1,419
13,173,Matching,Friend,Self,1,739
13,174,Matching,Friend,Friend,1,843
13,175,Matching,Friend,Self,1,462
13,176,Matching,Friend,Self,1,494
13,177,Matching,Friend,Friend,1,774
13,178,Nonmatching,Friend,Self,1,735
8,75,Matching,Self,Friend,0,730
13,180,Matching,Friend,Self,1,558
8,76,Nonmatching,Self,Friend,0,549
13,182,Matching,Friend,Self,1,480
13,183,Nonmatching,Friend,Self,1,614
8,77,Matching,Self,Friend,0,1017
13,185,Matching,Friend,Self,1,553
13,186,Nonmatching,Friend,Self,1,998
8,80,Nonmatching,Self,Friend,0,489
13,189,Nonmatching,Friend,Self,1,854
13,190,Matching,Friend,Self,1,560
13,191,Nonmatching,Friend,Friend,1,878
13,192,Matching,Friend,Self,1,734
13,193,Nonmatching,Friend,Self,1,873
13,194,Nonmatching,Friend,Self,1,605
8,82,Nonmatching,Self,Self,0,606
13,196,Nonmatching,Friend,Self,1,753
13,197,Matching,Friend,Friend,1,525
13,198,Nonmatching,Friend,Self,1,574
13,199,Matching,Friend,Self,1,718
13,200,Matching,Friend,Self,1,647
8,84,Matching,Self,Friend,0,871
13,2,Matching,Self,Friend,1,688
8,97,Nonmatching,Self,Friend,0,810
13,4,Nonmatching,Self,Friend,1,755
8,98,Matching,Self,Friend,0,1054
13,6,Matching,Self,Friend,1,545
8,136,Matching,Self,Friend,0,759
13,8,Matching,Self,Friend,1,496
13,9,Matching,Self,Friend,1,758
13,10,Nonmatching,Self,Self,1,711
8,144,Nonmatching,Self,Friend,0,737
8,148,Nonmatching,Self,Friend,0,382
13,13,Nonmatching,Self,Friend,1,797
8,149,Nonmatching,Self,Friend,0,374
13,15,Matching,Self,Friend,1,595
8,152,Matching,Self,Friend,0,375
13,17,Matching,Self,Self,1,735
8,153,Nonmatching,Self,Friend,0,523
13,19,Matching,Self,Friend,1,732
13,20,Nonmatching,Self,Friend,1,991
13,21,Nonmatching,Self,Friend,1,786
8,161,Nonmatching,Self,Friend,0,701
8,163,Matching,Self,Friend,0,547
13,24,Matching,Self,Friend,1,609
13,25,Nonmatching,Self,Friend,1,1004
13,26,Matching,Self,Friend,1,847
13,27,Matching,Self,Self,1,715
13,28,Nonmatching,Self,Friend,1,789
13,30,Matching,Self,Self,1,728
13,31,Nonmatching,Self,Friend,1,956
13,32,Matching,Self,Friend,1,779
13,33,Nonmatching,Self,Friend,1,669
8,170,Nonmatching,Self,Self,0,720
8,173,Matching,Self,Friend,0,931
13,38,Matching,Self,Friend,1,1071
13,39,Nonmatching,Self,Friend,1,726
13,40,Matching,Self,Friend,1,746
13,42,Nonmatching,Self,Friend,1,822
8,175,Nonmatching,Self,Self,0,641
13,44,Nonmatching,Self,Friend,1,617
8,179,Nonmatching,Self,Friend,0,422
8,180,Nonmatching,Self,Self,0,764
13,47,Nonmatching,Self,Self,1,972
13,49,Nonmatching,Self,Friend,1,575
13,50,Matching,Self,Friend,1,581
13,51,Matching,Self,Friend,1,640
13,52,Nonmatching,Self,Self,1,680
8,186,Nonmatching,Self,Self,0,771
9,10,Matching,Friend,Self,0,496
13,55,Nonmatching,Self,Self,1,709
13,57,Matching,Self,Friend,1,673
13,58,Nonmatching,Self,Friend,1,680
9,14,Matching,Friend,Self,0,580
13,60,Nonmatching,Self,Friend,1,757
13,61,Matching,Self,Friend,1,429
13,62,Nonmatching,Self,Friend,1,520
9,20,Nonmatching,Friend,Self,0,529
13,64,Matching,Self,Friend,1,734
13,66,Nonmatching,Self,Self,1,748
13,67,Nonmatching,Self,Friend,1,673
13,68,Matching,Self,Friend,1,608
13,69,Matching,Self,Friend,1,780
13,70,Nonmatching,Self,Friend,1,665
13,71,Nonmatching,Self,Friend,1,514
9,21,Nonmatching,Friend,Friend,0,595
13,74,Nonmatching,Self,Self,1,606
13,75,Nonmatching,Self,Self,1,499
13,76,Nonmatching,Self,Self,1,415
13,77,Matching,Self,Friend,1,463
9,24,Matching,Friend,Self,0,407
13,79,Matching,Self,Friend,1,617
13,80,Matching,Self,Friend,1,408
13,81,Nonmatching,Self,Friend,1,599
13,82,Nonmatching,Self,Self,1,550
13,83,Nonmatching,Self,Self,1,459
13,84,Matching,Self,Friend,1,753
13,85,Matching,Self,Friend,1,471
13,86,Matching,Self,Self,1,672
13,87,Matching,Self,Friend,1,630
13,88,Nonmatching,Self,Friend,1,693
13,89,Matching,Self,Friend,1,592
13,90,Nonmatching,Self,Friend,1,725
13,91,Matching,Self,Friend,1,536
13,92,Matching,Self,Self,1,640
13,93,Matching,Self,Self,1,459
9,27,Matching,Friend,Friend,0,456
13,95,Matching,Self,Self,1,841
13,96,Nonmatching,Self,Self,1,834
13,97,Nonmatching,Self,Self,1,686
13,98,Matching,Self,Friend,1,741
9,28,Nonmatching,Friend,Self,0,371
9,29,Nonmatching,Friend,Self,0,633
13,101,Matching,Self,Self,1,619
13,102,Nonmatching,Self,Friend,1,957
13,103,Matching,Self,Friend,1,818
13,104,Nonmatching,Self,Friend,1,559
13,105,Matching,Self,Friend,1,440
9,41,Nonmatching,Friend,Friend,0,525
13,107,Matching,Self,Self,1,602
13,108,Matching,Self,Friend,1,884
13,109,Nonmatching,Self,Friend,1,754
13,110,Matching,Self,Self,1,456
13,111,Matching,Self,Friend,1,610
13,112,Nonmatching,Self,Friend,1,503
13,113,Nonmatching,Self,Friend,1,862
13,114,Matching,Self,Friend,1,563
13,115,Matching,Self,Friend,1,790
13,116,Nonmatching,Self,Friend,1,613
9,46,Nonmatching,Friend,Friend,0,715
9,48,Matching,Friend,Friend,0,432
13,119,Matching,Self,Friend,1,502
13,120,Nonmatching,Self,Friend,1,528
13,121,Matching,Self,Self,1,501
13,122,Nonmatching,Self,Self,1,663
9,51,Matching,Friend,Self,0,564
13,124,Nonmatching,Self,Self,1,766
13,125,Nonmatching,Self,Friend,1,603
13,126,Nonmatching,Self,Friend,1,518
13,127,Matching,Self,Friend,1,547
13,128,Nonmatching,Self,Friend,1,720
13,129,Matching,Self,Self,1,776
13,130,Matching,Self,Self,1,448
9,53,Nonmatching,Friend,Self,0,433
13,132,Matching,Self,Friend,1,691
13,133,Nonmatching,Self,Friend,1,600
13,134,Matching,Self,Friend,1,659
9,54,Nonmatching,Friend,Self,0,549
9,57,Matching,Friend,Friend,0,483
13,137,Matching,Self,Friend,1,558
13,138,Nonmatching,Self,Friend,1,661
13,139,Matching,Self,Friend,1,539
13,140,Matching,Self,Friend,1,544
9,61,Nonmatching,Friend,Self,0,368
13,142,Matching,Self,Self,1,554
13,143,Nonmatching,Self,Friend,1,559
13,144,Nonmatching,Self,Friend,1,374
13,145,Nonmatching,Self,Friend,1,470
13,146,Matching,Self,Self,1,681
9,68,Matching,Friend,Self,0,542
13,150,Nonmatching,Self,Friend,1,563
13,151,Nonmatching,Self,Friend,1,614
9,73,Matching,Friend,Self,0,598
13,153,Matching,Self,Self,1,608
13,154,Matching,Self,Friend,1,648
13,155,Matching,Self,Friend,1,828
13,156,Matching,Self,Friend,1,406
13,157,Nonmatching,Self,Friend,1,497
13,158,Nonmatching,Self,Friend,1,543
13,159,Nonmatching,Self,Self,1,636
9,79,Matching,Friend,Self,0,484
13,161,Nonmatching,Self,Friend,1,616
13,162,Matching,Self,Friend,1,491
13,163,Matching,Self,Friend,1,640
13,165,Nonmatching,Self,Friend,1,499
13,166,Matching,Self,Friend,1,291
9,85,Nonmatching,Friend,Self,0,414
9,86,Matching,Friend,Self,0,566
9,91,Matching,Friend,Self,0,556
9,98,Nonmatching,Friend,Friend,0,442
13,171,Nonmatching,Self,Friend,1,882
9,99,Matching,Friend,Self,0,612
9,100,Nonmatching,Friend,Self,0,235
13,174,Nonmatching,Self,Self,1,574
13,175,Matching,Self,Self,1,518
13,176,Matching,Self,Friend,1,587
9,103,Matching,Friend,Self,0,464
13,178,Nonmatching,Self,Friend,1,742
13,179,Nonmatching,Self,Friend,1,474
13,180,Matching,Self,Friend,1,572
13,181,Matching,Self,Friend,1,542
13,182,Nonmatching,Self,Friend,1,669
13,183,Nonmatching,Self,Friend,1,601
13,184,Matching,Self,Friend,1,653
13,185,Matching,Self,Friend,1,562
13,186,Matching,Self,Self,1,623
9,105,Matching,Friend,Self,0,524
9,106,Nonmatching,Friend,Friend,0,355
13,190,Matching,Self,Friend,1,662
9,107,Nonmatching,Friend,Self,0,703
13,192,Matching,Self,Self,1,665
13,193,Matching,Self,Self,1,538
13,194,Nonmatching,Self,Friend,1,457
13,195,Matching,Self,Self,1,414
13,196,Matching,Self,Friend,1,747
13,197,Matching,Self,Friend,1,582
13,198,Nonmatching,Self,Friend,1,558
13,199,Matching,Self,Friend,1,668
13,200,Nonmatching,Self,Self,1,468
1,2,Matching,Friend,Friend,1,264
9,108,Nonmatching,Friend,Self,0,479
1,5,Nonmatching,Friend,Self,1,254
9,112,Nonmatching,Friend,Friend,0,428
1,11,Matching,Friend,Self,1,396
1,12,Nonmatching,Friend,Self,1,434
9,119,Matching,Friend,Self,0,803
1,14,Nonmatching,Friend,Self,1,356
9,123,Matching,Friend,Self,0,581
1,21,Matching,Friend,Self,1,599
1,24,Matching,Friend,Self,1,288
1,25,Nonmatching,Friend,Self,1,361
9,126,Matching,Friend,Self,0,600
9,134,Matching,Friend,Self,0,428
9,135,Matching,Friend,Friend,0,427
1,32,Matching,Friend,Self,1,277
1,33,Nonmatching,Friend,Friend,1,457
1,34,Matching,Friend,Self,1,251
1,36,Matching,Friend,Self,1,213
1,37,Nonmatching,Friend,Friend,1,528
9,139,Nonmatching,Friend,Self,0,522
9,141,Nonmatching,Friend,Friend,0,572
9,145,Nonmatching,Friend,Friend,0,533
9,146,Nonmatching,Friend,Self,0,348
1,45,Nonmatching,Friend,Self,1,803
1,46,Nonmatching,Friend,Self,1,495
1,47,Matching,Friend,Self,1,281
1,48,Nonmatching,Friend,Self,1,244
9,150,Nonmatching,Friend,Friend,0,424
1,52,Nonmatching,Friend,Self,1,355
1,53,Nonmatching,Friend,Self,1,373
1,54,Nonmatching,Friend,Self,1,394
1,55,Matching,Friend,Self,1,398
1,56,Nonmatching,Friend,Self,1,214
9,158,Nonmatching,Friend,Friend,0,491
1,59,Nonmatching,Friend,Friend,1,429
1,60,Matching,Friend,Self,1,325
1,64,Nonmatching,Friend,Self,1,297
9,160,Matching,Friend,Self,0,637
9,161,Matching,Friend,Self,0,433
1,67,Nonmatching,Friend,Self,1,369
1,68,Matching,Friend,Self,1,292
1,69,Nonmatching,Friend,Self,1,463
1,70,Nonmatching,Friend,Self,1,432
1,71,Nonmatching,Friend,Self,1,429
1,72,Nonmatching,Friend,Self,1,415
9,163,Nonmatching,Friend,Friend,0,357
1,75,Matching,Friend,Self,1,562
9,165,Matching,Friend,Self,0,613
1,77,Matching,Friend,Self,1,424
9,167,Matching,Friend,Self,0,503
9,168,Nonmatching,Friend,Friend,0,381
1,80,Matching,Friend,Self,1,440
1,81,Matching,Friend,Self,1,470
1,82,Matching,Friend,Self,1,471
1,83,Matching,Friend,Self,1,448
9,170,Matching,Friend,Friend,0,608
9,171,Nonmatching,Friend,Friend,0,370
1,88,Nonmatching,Friend,Self,1,353
9,172,Matching,Friend,Friend,0,1029
1,90,Matching,Friend,Self,1,516
1,91,Nonmatching,Friend,Self,1,754
1,93,Nonmatching,Friend,Self,1,411
1,94,Matching,Friend,Self,1,364
1,95,Matching,Friend,Self,1,523
9,175,Nonmatching,Friend,Self,0,427
1,98,Matching,Friend,Self,1,320
9,178,Matching,Friend,Friend,0,395
1,100,Matching,Friend,Self,1,335
1,101,Nonmatching,Friend,Self,1,375
1,103,Nonmatching,Friend,Self,1,483
1,104,Nonmatching,Friend,Self,1,422
1,105,Nonmatching,Friend,Friend,1,548
1,106,Nonmatching,Friend,Self,1,1009
1,107,Nonmatching,Friend,Self,1,462
1,108,Nonmatching,Friend,Self,1,419
1,109,Matching,Friend,Self,1,271
1,110,Matching,Friend,Self,1,546
9,179,Nonmatching,Friend,Self,0,373
1,114,Matching,Friend,Self,1,493
1,115,Nonmatching,Friend,Self,1,566
1,116,Matching,Friend,Self,1,293
1,117,Nonmatching,Friend,Self,1,566
1,118,Matching,Friend,Self,1,491
1,119,Nonmatching,Friend,Friend,1,771
9,184,Matching,Friend,Self,0,464
1,121,Nonmatching,Friend,Self,1,710
1,122,Matching,Friend,Self,1,507
1,123,Nonmatching,Friend,Friend,1,688
1,124,Matching,Friend,Self,1,574
1,125,Matching,Friend,Self,1,519
9,190,Nonmatching,Friend,Friend,0,397
9,192,Matching,Friend,Friend,0,359
9,194,Nonmatching,Friend,Self,0,390
1,132,Matching,Friend,Self,1,331
1,133,Matching,Friend,Self,1,586
1,134,Matching,Friend,Friend,1,598
1,135,Nonmatching,Friend,Self,1,799
1,136,Nonmatching,Friend,Self,1,944
1,137,Matching,Friend,Self,1,703
1,138,Matching,Friend,Self,1,592
1,139,Nonmatching,Friend,Self,1,625
1,140,Matching,Friend,Self,1,318
1,141,Nonmatching,Friend,Self,1,511
9,195,Matching,Friend,Friend,0,217
9,196,Nonmatching,Friend,Friend,0,343
1,147,Nonmatching,Friend,Self,1,994
1,148,Matching,Friend,Self,1,518
1,149,Nonmatching,Friend,Friend,1,973
1,151,Matching,Friend,Self,1,691
1,152,Matching,Friend,Self,1,492
1,153,Nonmatching,Friend,Self,1,523
1,154,Matching,Friend,Self,1,446
9,10,Matching,Self,Friend,0,561
1,157,Matching,Friend,Friend,1,708
1,158,Matching,Friend,Self,1,942
1,161,Nonmatching,Friend,Self,1,871
1,162,Matching,Friend,Friend,1,506
1,164,Nonmatching,Friend,Self,1,739
1,165,Matching,Friend,Self,1,529
1,166,Nonmatching,Friend,Self,1,726
1,167,Matching,Friend,Self,1,409
1,168,Nonmatching,Friend,Self,1,444
9,15,Nonmatching,Self,Self,0,595
9,16,Matching,Self,Friend,0,584
1,172,Matching,Friend,Self,1,612
9,19,Matching,Self,Friend,0,408
1,175,Matching,Friend,Self,1,595
9,26,Matching,Self,Friend,0,412
1,178,Matching,Friend,Friend,1,529
1,179,Nonmatching,Friend,Self,1,555
1,180,Matching,Friend,Self,1,335
1,181,Matching,Friend,Self,1,595
1,182,Matching,Friend,Self,1,379
1,183,Nonmatching,Friend,Self,1,454
1,184,Nonmatching,Friend,Friend,1,652
1,185,Matching,Friend,Friend,1,1003
9,30,Matching,Self,Friend,0,383
1,188,Matching,Friend,Self,1,534
1,189,Nonmatching,Friend,Friend,1,544
1,190,Matching,Friend,Self,1,582
1,191,Matching,Friend,Self,1,473
1,192,Nonmatching,Friend,Self,1,593
1,194,Nonmatching,Friend,Self,1,846
1,195,Matching,Friend,Friend,1,521
1,196,Nonmatching,Friend,Self,1,914
1,197,Matching,Friend,Self,1,287
1,198,Matching,Friend,Self,1,480
1,199,Matching,Friend,Self,1,368
9,32,Nonmatching,Self,Friend,0,476
1,1,Nonmatching,Self,Friend,1,631
1,2,Matching,Self,Self,1,449
1,3,Nonmatching,Self,Self,1,707
1,4,Matching,Self,Friend,1,851
1,5,Nonmatching,Self,Friend,1,509
9,33,Nonmatching,Self,Friend,0,413
1,8,Matching,Self,Friend,1,976
1,9,Nonmatching,Self,Friend,1,777
1,10,Matching,Self,Self,1,481
1,11,Matching,Self,Self,1,603
9,43,Nonmatching,Self,Self,0,410
9,51,Matching,Self,Friend,0,448
1,15,Nonmatching,Self,Friend,1,340
1,16,Nonmatching,Self,Friend,1,467
1,17,Nonmatching,Self,Friend,1,413
1,18,Nonmatching,Self,Friend,1,502
1,19,Nonmatching,Self,Friend,1,466
9,52,Nonmatching,Self,Self,0,464
1,23,Matching,Self,Friend,1,305
9,53,Nonmatching,Self,Friend,0,375
1,26,Nonmatching,Self,Self,1,659
1,27,Matching,Self,Self,1,730
1,28,Matching,Self,Friend,1,1050
1,29,Nonmatching,Self,Friend,1,661
9,63,Nonmatching,Self,Friend,0,488
1,31,Nonmatching,Self,Friend,1,712
1,32,Nonmatching,Self,Friend,1,840
1,34,Nonmatching,Self,Friend,1,710
1,35,Nonmatching,Self,Friend,1,811
1,36,Matching,Self,Friend,1,656
1,37,Matching,Self,Friend,1,580
1,38,Nonmatching,Self,Friend,1,607
1,39,Matching,Self,Self,1,702
1,40,Nonmatching,Self,Friend,1,980
1,41,Matching,Self,Friend,1,947
1,42,Matching,Self,Friend,1,376
9,66,Matching,Self,Self,0,511
1,45,Matching,Self,Self,1,517
1,46,Nonmatching,Self,Friend,1,536
1,47,Matching,Self,Friend,1,840
1,48,Matching,Self,Friend,1,422
1,49,Nonmatching,Self,Friend,1,472
1,51,Matching,Self,Self,1,560
1,52,Nonmatching,Self,Self,1,562
1,54,Nonmatching,Self,Friend,1,638
1,55,Matching,Self,Friend,1,724
1,57,Matching,Self,Friend,1,725
1,58,Nonmatching,Self,Self,1,769
1,59,Matching,Self,Friend,1,595
9,70,Matching,Self,Self,0,608
9,72,Nonmatching,Self,Friend,0,508
1,66,Matching,Self,Friend,1,794
1,67,Nonmatching,Self,Self,1,696
1,68,Nonmatching,Self,Friend,1,1018
1,69,Matching,Self,Friend,1,834
1,70,Matching,Self,Friend,1,570
1,71,Nonmatching,Self,Friend,1,525
1,72,Matching,Self,Self,1,692
1,73,Matching,Self,Self,1,734
1,74,Nonmatching,Self,Friend,1,454
1,75,Matching,Self,Friend,1,797
1,76,Nonmatching,Self,Friend,1,732
1,77,Matching,Self,Friend,1,797
1,78,Nonmatching,Self,Friend,1,693
1,79,Matching,Self,Self,1,627
1,80,Nonmatching,Self,Self,1,693
1,81,Matching,Self,Friend,1,826
1,82,Matching,Self,Self,1,715
1,83,Matching,Self,Friend,1,1005
1,84,Nonmatching,Self,Friend,1,583
1,85,Matching,Self,Friend,1,1024
9,73,Nonmatching,Self,Friend,0,399
1,89,Nonmatching,Self,Friend,1,1038
1,90,Matching,Self,Friend,1,694
1,91,Nonmatching,Self,Friend,1,881
1,93,Matching,Self,Friend,1,237
9,75,Nonmatching,Self,Friend,0,489
1,97,Matching,Self,Friend,1,1081
1,98,Matching,Self,Friend,1,1001
1,99,Matching,Self,Friend,1,748
1,101,Matching,Self,Friend,1,394
1,102,Nonmatching,Self,Friend,1,481
9,76,Matching,Self,Self,0,402
9,77,Nonmatching,Self,Friend,0,347
9,79,Matching,Self,Friend,0,514
1,109,Nonmatching,Self,Friend,1,802
9,83,Nonmatching,Self,Self,0,626
1,114,Nonmatching,Self,Self,1,723
1,116,Matching,Self,Friend,1,822
1,117,Matching,Self,Friend,1,503
1,118,Matching,Self,Friend,1,364
9,86,Matching,Self,Friend,0,829
9,87,Matching,Self,Self,0,975
1,124,Nonmatching,Self,Friend,1,852
1,125,Matching,Self,Friend,1,600
1,127,Matching,Self,Friend,1,483
9,91,Matching,Self,Friend,0,258
9,92,Nonmatching,Self,Self,0,750
1,132,Nonmatching,Self,Self,1,1008
1,133,Matching,Self,Friend,1,691
1,134,Nonmatching,Self,Friend,1,648
1,136,Matching,Self,Self,1,887
1,138,Nonmatching,Self,Friend,1,421
1,139,Nonmatching,Self,Friend,1,882
1,140,Matching,Self,Friend,1,1006
1,141,Nonmatching,Self,Friend,1,736
1,142,Nonmatching,Self,Self,1,979
1,143,Nonmatching,Self,Friend,1,677
1,145,Matching,Self,Self,1,495
1,146,Matching,Self,Friend,1,687
1,147,Nonmatching,Self,Friend,1,690
1,148,Matching,Self,Self,1,586
1,150,Nonmatching,Self,Friend,1,931
9,94,Matching,Self,Self,0,400
1,155,Matching,Self,Friend,1,958
1,156,Nonmatching,Self,Friend,1,469
1,157,Nonmatching,Self,Friend,1,982
1,158,Nonmatching,Self,Friend,1,536
1,159,Nonmatching,Self,Friend,1,658
1,160,Matching,Self,Friend,1,893
1,161,Nonmatching,Self,Friend,1,831
1,162,Matching,Self,Self,1,684
1,165,Nonmatching,Self,Friend,1,755
1,166,Matching,Self,Self,1,868
1,167,Nonmatching,Self,Friend,1,740
1,169,Nonmatching,Self,Friend,1,625
1,170,Nonmatching,Self,Friend,1,615
1,171,Matching,Self,Friend,1,736
1,172,Nonmatching,Self,Friend,1,618
1,174,Matching,Self,Friend,1,237
1,176,Nonmatching,Self,Friend,1,487
9,95,Matching,Self,Friend,0,597
1,178,Nonmatching,Self,Self,1,391
9,96,Nonmatching,Self,Friend,0,344
1,182,Nonmatching,Self,Self,1,899
1,183,Matching,Self,Self,1,561
9,97,Matching,Self,Friend,0,665
1,186,Nonmatching,Self,Friend,1,529
9,100,Nonmatching,Self,Self,0,419
9,101,Nonmatching,Self,Friend,0,670
9,103,Matching,Self,Friend,0,580
9,105,Nonmatching,Self,Self,0,550
1,196,Matching,Self,Friend,1,975
1,198,Matching,Self,Friend,1,323
1,199,Nonmatching,Self,Self,1,644
6,1,Nonmatching,Self,Friend,1,650
6,2,Matching,Self,Friend,1,770
6,3,Nonmatching,Self,Friend,1,704
6,4,Matching,Self,Friend,1,641
9,106,Matching,Self,Self,0,507
9,107,Matching,Self,Friend,0,685
6,7,Nonmatching,Self,Friend,1,726
6,8,Nonmatching,Self,Friend,1,623
6,9,Matching,Self,Friend,1,708
6,10,Matching,Self,Friend,1,582
6,11,Matching,Self,Friend,1,458
6,12,Matching,Self,Friend,1,511
9,108,Nonmatching,Self,Friend,0,421
6,14,Nonmatching,Self,Friend,1,718
9,109,Nonmatching,Self,Self,0,607
6,16,Nonmatching,Self,Self,1,650
6,17,Matching,Self,Friend,1,754
9,112,Nonmatching,Self,Self,0,634
6,19,Nonmatching,Self,Self,1,760
9,113,Nonmatching,Self,Friend,0,511
9,114,Matching,Self,Friend,0,425
6,22,Matching,Self,Self,1,507
9,121,Nonmatching,Self,Self,0,570
6,24,Matching,Self,Self,1,592
9,123,Matching,Self,Self,0,380
6,26,Matching,Self,Friend,1,545
6,27,Matching,Self,Friend,1,429
6,28,Nonmatching,Self,Friend,1,626
6,29,Nonmatching,Self,Friend,1,596
9,127,Matching,Self,Friend,0,641
6,31,Matching,Self,Self,1,732
6,32,Nonmatching,Self,Friend,1,581
6,33,Nonmatching,Self,Self,1,680
9,135,Nonmatching,Self,Self,0,515
9,141,Matching,Self,Self,0,496
6,37,Matching,Self,Friend,1,938
6,38,Nonmatching,Self,Friend,1,619
6,39,Matching,Self,Friend,1,660
6,40,Matching,Self,Friend,1,708
6,41,Nonmatching,Self,Friend,1,514
6,42,Nonmatching,Self,Friend,1,704
6,43,Matching,Self,Friend,1,605
6,44,Nonmatching,Self,Friend,1,588
6,45,Matching,Self,Friend,1,622
9,142,Nonmatching,Self,Friend,0,402
9,157,Matching,Self,Self,0,573
6,49,Nonmatching,Self,Self,1,451
6,51,Nonmatching,Self,Friend,1,455
6,52,Nonmatching,Self,Friend,1,600
9,161,Matching,Self,Friend,0,646
6,54,Matching,Self,Friend,1,507
6,55,Matching,Self,Self,1,618
6,56,Nonmatching,Self,Self,1,559
9,165,Nonmatching,Self,Friend,0,821
9,178,Nonmatching,Self,Self,0,908
6,60,Nonmatching,Self,Friend,1,534
9,179,Nonmatching,Self,Friend,0,643
6,62,Nonmatching,Self,Friend,1,835
6,63,Matching,Self,Friend,1,464
6,64,Nonmatching,Self,Self,1,626
6,65,Nonmatching,Self,Self,1,431
6,66,Nonmatching,Self,Self,1,578
6,67,Matching,Self,Friend,1,580
9,183,Nonmatching,Self,Self,0,546
9,184,Matching,Self,Friend,0,577
6,70,Nonmatching,Self,Friend,1,613
6,71,Nonmatching,Self,Friend,1,565
6,72,Matching,Self,Self,1,389
6,73,Nonmatching,Self,Self,1,513
9,186,Matching,Self,Friend,0,497
6,75,Nonmatching,Self,Friend,1,575
6,76,Nonmatching,Self,Friend,1,421
6,77,Nonmatching,Self,Friend,1,393
9,191,Matching,Self,Friend,0,548
6,79,Matching,Self,Friend,1,548
9,193,Nonmatching,Self,Self,0,640
9,196,Matching,Self,Self,0,315
6,82,Nonmatching,Self,Friend,1,564
6,83,Nonmatching,Self,Friend,1,808
6,84,Matching,Self,Friend,1,637
6,86,Matching,Self,Friend,1,572
6,87,Nonmatching,Self,Friend,1,694
6,88,Matching,Self,Friend,1,708
6,89,Matching,Self,Friend,1,499
10,4,Matching,Self,Friend,0,701
6,91,Nonmatching,Self,Friend,1,721
6,92,Nonmatching,Self,Friend,1,691
6,93,Matching,Self,Self,1,507
6,94,Matching,Self,Friend,1,568
6,95,Nonmatching,Self,Self,1,604
6,96,Nonmatching,Self,Self,1,578
10,9,Matching,Self,Friend,0,825
6,98,Matching,Self,Friend,1,668
6,99,Nonmatching,Self,Friend,1,749
6,100,Nonmatching,Self,Friend,1,508
6,101,Matching,Self,Friend,1,575
6,102,Matching,Self,Self,1,551
6,103,Nonmatching,Self,Friend,1,521
6,104,Nonmatching,Self,Self,1,746
6,105,Nonmatching,Self,Friend,1,1083
10,13,Nonmatching,Self,Friend,0,670
6,107,Nonmatching,Self,Friend,1,683
6,108,Matching,Self,Self,1,585
6,109,Nonmatching,Self,Self,1,802
6,110,Matching,Self,Friend,1,545
6,111,Nonmatching,Self,Friend,1,857
10,16,Nonmatching,Self,Friend,0,439
6,113,Matching,Self,Friend,1,495
10,19,Matching,Self,Friend,0,682
10,24,Nonmatching,Self,Friend,0,716
10,26,Nonmatching,Self,Self,0,663
6,117,Nonmatching,Self,Friend,1,742
6,118,Nonmatching,Self,Friend,1,602
6,119,Matching,Self,Friend,1,567
6,120,Nonmatching,Self,Friend,1,568
10,39,Matching,Self,Friend,0,552
6,122,Nonmatching,Self,Self,1,803
6,123,Nonmatching,Self,Friend,1,747
10,40,Nonmatching,Self,Friend,0,640
6,125,Matching,Self,Friend,1,549
6,126,Matching,Self,Friend,1,459
6,127,Matching,Self,Friend,1,425
10,55,Nonmatching,Self,Friend,0,655
10,57,Matching,Self,Self,0,624
6,130,Nonmatching,Self,Friend,1,698
10,65,Nonmatching,Self,Self,0,769
6,132,Matching,Self,Friend,1,738
6,133,Matching,Self,Friend,1,460
10,74,Matching,Self,Self,0,566
6,136,Matching,Self,Friend,1,752
6,137,Matching,Self,Friend,1,402
6,138,Matching,Self,Self,1,560
10,81,Nonmatching,Self,Friend,0,554
6,140,Nonmatching,Self,Friend,1,901
6,141,Matching,Self,Friend,1,936
6,142,Matching,Self,Self,1,580
6,143,Nonmatching,Self,Friend,1,702
6,144,Matching,Self,Friend,1,776
6,145,Matching,Self,Friend,1,368
6,146,Nonmatching,Self,Friend,1,576
6,147,Matching,Self,Friend,1,558
6,148,Nonmatching,Self,Self,1,763
6,149,Nonmatching,Self,Self,1,740
6,150,Matching,Self,Self,1,416
6,151,Matching,Self,Friend,1,623
6,152,Nonmatching,Self,Friend,1,701
6,153,Nonmatching,Self,Friend,1,630
10,91,Nonmatching,Self,Self,0,481
6,155,Matching,Self,Friend,1,735
6,156,Nonmatching,Self,Friend,1,636
6,157,Matching,Self,Self,1,729
6,158,Matching,Self,Friend,1,649
6,159,Nonmatching,Self,Friend,1,830
10,94,Matching,Self,Self,0,677
6,162,Nonmatching,Self,Friend,1,557
6,163,Matching,Self,Friend,1,664
6,164,Matching,Self,Friend,1,369
6,165,Nonmatching,Self,Friend,1,632
6,167,Nonmatching,Self,Friend,1,511
10,110,Nonmatching,Self,Self,0,508
6,169,Nonmatching,Self,Self,1,740
10,116,Nonmatching,Self,Self,0,629
6,171,Matching,Self,Friend,1,850
6,172,Nonmatching,Self,Self,1,940
6,173,Matching,Self,Self,1,532
6,174,Nonmatching,Self,Friend,1,797
6,175,Matching,Self,Self,1,810
6,176,Matching,Self,Friend,1,404
6,177,Nonmatching,Self,Friend,1,574
6,178,Matching,Self,Friend,1,526
6,179,Matching,Self,Friend,1,535
6,180,Matching,Self,Friend,1,516
6,181,Matching,Self,Friend,1,497
6,182,Matching,Self,Friend,1,451
10,122,Matching,Self,Friend,0,707
6,184,Matching,Self,Friend,1,680
6,185,Matching,Self,Self,1,572
6,186,Matching,Self,Friend,1,511
6,187,Matching,Self,Friend,1,498
6,188,Nonmatching,Self,Friend,1,604
6,189,Matching,Self,Friend,1,632
6,190,Matching,Self,Friend,1,362
6,191,Matching,Self,Friend,1,544
6,192,Nonmatching,Self,Friend,1,505
6,193,Matching,Self,Friend,1,651
10,145,Matching,Self,Self,0,796
10,150,Nonmatching,Self,Self,0,471
6,196,Matching,Self,Friend,1,424
6,197,Matching,Self,Friend,1,877
6,199,Matching,Self,Self,1,480
6,200,Nonmatching,Self,Friend,1,607
6,1,Nonmatching,Friend,Friend,1,526
10,152,Matching,Self,Friend,0,534
6,3,Matching,Friend,Self,1,630
6,4,Matching,Friend,Self,1,490
6,5,Nonmatching,Friend,Self,1,576
6,6,Matching,Friend,Self,1,595
10,156,Matching,Self,Friend,0,554
6,8,Matching,Friend,Self,1,534
6,9,Nonmatching,Friend,Self,1,534
10,159,Matching,Self,Friend,0,749
6,11,Matching,Friend,Friend,1,714
6,12,Matching,Friend,Self,1,948
6,13,Nonmatching,Friend,Self,1,677
6,14,Matching,Friend,Self,1,660
6,15,Nonmatching,Friend,Self,1,704
6,16,Nonmatching,Friend,Self,1,521
10,169,Matching,Self,Self,0,782
10,178,Nonmatching,Self,Self,0,516
6,19,Matching,Friend,Self,1,591
6,20,Matching,Friend,Self,1,439
10,183,Matching,Self,Self,0,916
6,22,Nonmatching,Friend,Self,1,737
6,23,Matching,Friend,Self,1,814
6,24,Matching,Friend,Friend,1,459
10,185,Matching,Self,Friend,0,454
6,26,Matching,Friend,Friend,1,663
6,27,Matching,Friend,Self,1,615
6,28,Matching,Friend,Friend,1,426
6,29,Matching,Friend,Self,1,390
10,191,Nonmatching,Self,Self,0,431
10,195,Matching,Self,Friend,0,483
6,32,Matching,Friend,Self,1,733
6,34,Matching,Friend,Self,1,688
6,35,Matching,Friend,Self,1,510
6,36,Matching,Friend,Friend,1,574
6,37,Nonmatching,Friend,Friend,1,656
6,38,Nonmatching,Friend,Friend,1,540
6,39,Matching,Friend,Self,1,647
6,40,Matching,Friend,Friend,1,872
6,41,Nonmatching,Friend,Self,1,595
6,42,Nonmatching,Friend,Self,1,543
6,43,Nonmatching,Friend,Self,1,475
6,44,Matching,Friend,Self,1,583
10,198,Nonmatching,Self,Friend,0,641
6,47,Matching,Friend,Friend,1,625
6,48,Matching,Friend,Self,1,356
6,49,Matching,Friend,Self,1,450
6,50,Matching,Friend,Self,1,520
6,52,Nonmatching,Friend,Self,1,597
6,53,Matching,Friend,Self,1,549
6,54,Nonmatching,Friend,Self,1,550
6,55,Nonmatching,Friend,Self,1,461
6,56,Matching,Friend,Self,1,562
6,57,Matching,Friend,Self,1,451
6,58,Nonmatching,Friend,Self,1,547
6,59,Matching,Friend,Self,1,584
6,60,Matching,Friend,Self,1,453
10,199,Nonmatching,Self,Friend,0,612
10,6,Nonmatching,Friend,Self,0,488
6,64,Nonmatching,Friend,Self,1,653
6,65,Nonmatching,Friend,Self,1,475
6,66,Nonmatching,Friend,Self,1,514
6,68,Nonmatching,Friend,Self,1,404
6,69,Matching,Friend,Self,1,602
6,70,Matching,Friend,Self,1,555
6,71,Nonmatching,Friend,Friend,1,755
10,12,Matching,Friend,Self,0,553
6,74,Nonmatching,Friend,Self,1,535
6,75,Matching,Friend,Friend,1,403
6,76,Matching,Friend,Friend,1,450
6,78,Matching,Friend,Self,1,373
6,79,Nonmatching,Friend,Self,1,539
6,80,Nonmatching,Friend,Self,1,550
6,82,Matching,Friend,Self,1,375
6,83,Matching,Friend,Self,1,478
6,84,Matching,Friend,Self,1,501
6,86,Matching,Friend,Self,1,724
10,31,Matching,Friend,Self,0,625
6,88,Matching,Friend,Self,1,786
6,89,Nonmatching,Friend,Self,1,644
6,90,Nonmatching,Friend,Self,1,474
10,32,Matching,Friend,Self,0,703
6,93,Matching,Friend,Self,1,527
6,94,Nonmatching,Friend,Self,1,541
6,95,Nonmatching,Friend,Self,1,484
10,37,Nonmatching,Friend,Friend,0,400
6,97,Matching,Friend,Self,1,664
10,43,Nonmatching,Friend,Self,0,533
10,44,Nonmatching,Friend,Self,0,435
6,102,Nonmatching,Friend,Self,1,576
10,61,Nonmatching,Friend,Self,0,550
10,71,Matching,Friend,Self,0,696
10,80,Matching,Friend,Friend,0,594
6,110,Matching,Friend,Friend,1,344
6,111,Matching,Friend,Self,1,342
10,81,Matching,Friend,Self,0,507
6,113,Matching,Friend,Self,1,308
6,114,Matching,Friend,Self,1,366
6,115,Matching,Friend,Self,1,419
6,118,Nonmatching,Friend,Friend,1,581
6,119,Nonmatching,Friend,Friend,1,465
6,122,Nonmatching,Friend,Self,1,584
6,123,Nonmatching,Friend,Self,1,475
6,125,Matching,Friend,Self,1,516
6,126,Nonmatching,Friend,Self,1,520
6,127,Matching,Friend,Friend,1,639
10,83,Nonmatching,Friend,Self,0,445
6,129,Matching,Friend,Friend,1,803
6,131,Nonmatching,Friend,Self,1,492
6,132,Matching,Friend,Self,1,490
6,133,Nonmatching,Friend,Self,1,763
6,134,Matching,Friend,Friend,1,757
10,85,Nonmatching,Friend,Self,0,484
6,137,Nonmatching,Friend,Self,1,382
10,89,Matching,Friend,Self,0,515
6,139,Nonmatching,Friend,Self,1,517
6,140,Matching,Friend,Self,1,601
10,91,Matching,Friend,Self,0,441
6,142,Matching,Friend,Self,1,549
6,143,Nonmatching,Friend,Self,1,585
10,93,Nonmatching,Friend,Self,0,622
6,146,Matching,Friend,Self,1,340
6,147,Matching,Friend,Self,1,368
6,148,Nonmatching,Friend,Self,1,515
6,149,Matching,Friend,Friend,1,353
6,150,Nonmatching,Friend,Self,1,613
10,113,Nonmatching,Friend,Self,0,470
6,152,Matching,Friend,Self,1,583
10,114,Nonmatching,Friend,Friend,0,423
6,155,Nonmatching,Friend,Self,1,742
10,117,Matching,Friend,Self,0,545
6,157,Matching,Friend,Self,1,479
10,118,Nonmatching,Friend,Self,0,670
6,160,Nonmatching,Friend,Self,1,504
10,121,Matching,Friend,Self,0,615
6,163,Matching,Friend,Self,1,415
10,126,Nonmatching,Friend,Friend,0,319
10,130,Matching,Friend,Friend,0,702
6,167,Nonmatching,Friend,Self,1,368
6,168,Nonmatching,Friend,Self,1,499
6,169,Nonmatching,Friend,Self,1,425
6,171,Matching,Friend,Self,1,339
6,172,Matching,Friend,Self,1,353
6,173,Matching,Friend,Self,1,347
6,174,Matching,Friend,Self,1,344
6,175,Nonmatching,Friend,Self,1,660
6,176,Nonmatching,Friend,Self,1,612
6,177,Nonmatching,Friend,Self,1,462
6,178,Matching,Friend,Friend,1,535
6,179,Nonmatching,Friend,Self,1,435
10,132,Nonmatching,Friend,Self,0,579
10,135,Nonmatching,Friend,Self,0,305
6,183,Matching,Friend,Self,1,447
6,184,Nonmatching,Friend,Self,1,468
6,185,Matching,Friend,Self,1,418
6,186,Matching,Friend,Friend,1,527
6,187,Nonmatching,Friend,Self,1,612
6,188,Matching,Friend,Self,1,383
6,189,Matching,Friend,Self,1,540
6,190,Nonmatching,Friend,Self,1,495
6,191,Matching,Friend,Self,1,340
6,192,Matching,Friend,Self,1,421
10,136,Matching,Friend,Self,0,601
6,195,Matching,Friend,Self,1,462
10,143,Matching,Friend,Friend,0,498
10,150,Matching,Friend,Friend,0,814
10,154,Matching,Friend,Friend,0,648
10,156,Nonmatching,Friend,Self,0,264
25,2,Nonmatching,Self,Friend,1,603
25,3,Matching,Self,Self,1,425
25,4,Nonmatching,Self,Friend,1,464
25,5,Nonmatching,Self,Friend,1,451
25,6,Nonmatching,Self,Friend,1,365
10,157,Nonmatching,Friend,Self,0,414
25,8,Matching,Self,Friend,1,493
25,9,Matching,Self,Self,1,728
10,166,Matching,Friend,Self,0,476
25,11,Nonmatching,Self,Friend,1,574
25,12,Matching,Self,Friend,1,536
25,13,Nonmatching,Self,Friend,1,737
10,168,Matching,Friend,Friend,0,689
25,15,Nonmatching,Self,Self,1,759
10,170,Nonmatching,Friend,Self,0,329
25,17,Nonmatching,Self,Friend,1,686
25,18,Matching,Self,Self,1,614
25,19,Matching,Self,Friend,1,726
25,20,Nonmatching,Self,Friend,1,559
25,21,Nonmatching,Self,Self,1,869
25,22,Nonmatching,Self,Friend,1,820
25,23,Nonmatching,Self,Friend,1,798
25,24,Matching,Self,Friend,1,478
25,25,Matching,Self,Friend,1,896
25,26,Matching,Self,Friend,1,601
25,27,Matching,Self,Friend,1,438
25,28,Matching,Self,Friend,1,484
25,29,Matching,Self,Friend,1,439
10,174,Matching,Friend,Friend,0,649
25,31,Matching,Self,Friend,1,874
25,32,Nonmatching,Self,Self,1,733
10,175,Nonmatching,Friend,Friend,0,705
10,180,Nonmatching,Friend,Self,0,465
10,181,Nonmatching,Friend,Self,0,606
25,37,Matching,Self,Friend,1,726
25,38,Nonmatching,Self,Friend,1,813
25,39,Matching,Self,Self,1,784
25,40,Nonmatching,Self,Friend,1,914
25,41,Nonmatching,Self,Friend,1,493
25,42,Nonmatching,Self,Friend,1,494
10,183,Nonmatching,Friend,Self,0,539
25,44,Nonmatching,Self,Friend,1,803
25,45,Nonmatching,Self,Friend,1,603
10,185,Nonmatching,Friend,Self,0,630
25,47,Matching,Self,Friend,1,849
25,48,Matching,Self,Friend,1,543
25,49,Matching,Self,Friend,1,451
25,50,Nonmatching,Self,Friend,1,566
25,51,Matching,Self,Self,1,546
10,189,Nonmatching,Friend,Self,0,762
25,53,Nonmatching,Self,Friend,1,719
25,54,Nonmatching,Self,Friend,1,583
10,193,Matching,Friend,Self,0,552
25,56,Matching,Self,Friend,1,845
25,57,Nonmatching,Self,Friend,1,517
25,58,Nonmatching,Self,Friend,1,581
10,198,Nonmatching,Friend,Self,0,588
25,60,Nonmatching,Self,Friend,1,662
25,61,Matching,Self,Friend,1,466
10,200,Nonmatching,Friend,Friend,0,204
11,4,Matching,Self,Friend,0,942
11,22,Nonmatching,Self,Friend,0,453
25,65,Matching,Self,Self,1,781
25,66,Matching,Self,Self,1,573
25,67,Nonmatching,Self,Friend,1,512
25,68,Matching,Self,Friend,1,561
11,30,Matching,Self,Self,0,733
11,36,Nonmatching,Self,Self,0,651
25,71,Matching,Self,Friend,1,580
25,72,Nonmatching,Self,Friend,1,809
25,73,Nonmatching,Self,Friend,1,451
25,74,Nonmatching,Self,Friend,1,566
25,75,Matching,Self,Friend,1,604
25,76,Nonmatching,Self,Friend,1,541
25,77,Nonmatching,Self,Friend,1,475
25,78,Matching,Self,Friend,1,521
25,79,Nonmatching,Self,Self,1,812
11,43,Nonmatching,Self,Friend,0,620
25,81,Nonmatching,Self,Friend,1,680
11,63,Matching,Self,Friend,0,597
25,83,Matching,Self,Friend,1,633
25,84,Nonmatching,Self,Self,1,556
11,74,Matching,Self,Friend,0,816
25,86,Matching,Self,Friend,1,505
25,87,Matching,Self,Friend,1,457
11,76,Nonmatching,Self,Friend,0,580
11,81,Matching,Self,Friend,0,699
25,90,Matching,Self,Self,1,515
11,83,Nonmatching,Self,Friend,0,585
25,92,Nonmatching,Self,Friend,1,899
11,116,Matching,Self,Friend,0,685
25,94,Nonmatching,Self,Friend,1,914
25,95,Matching,Self,Friend,1,618
11,129,Nonmatching,Self,Self,0,633
25,97,Matching,Self,Friend,1,626
25,98,Matching,Self,Friend,1,346
25,99,Matching,Self,Friend,1,390
11,143,Nonmatching,Self,Self,0,551
25,101,Nonmatching,Self,Self,1,799
11,154,Matching,Self,Friend,0,854
11,157,Matching,Self,Friend,0,702
11,197,Nonmatching,Self,Self,0,510
25,105,Matching,Self,Friend,1,650
25,106,Nonmatching,Self,Friend,1,1023
25,107,Nonmatching,Self,Self,1,740
25,108,Matching,Self,Self,1,503
25,109,Matching,Self,Self,1,914
11,10,Nonmatching,Friend,Self,0,825
25,111,Nonmatching,Self,Friend,1,730
25,112,Nonmatching,Self,Friend,1,580
11,19,Nonmatching,Friend,Self,0,387
25,114,Nonmatching,Self,Friend,1,643
25,115,Nonmatching,Self,Friend,1,638
25,116,Matching,Self,Friend,1,695
25,117,Matching,Self,Friend,1,730
25,118,Matching,Self,Friend,1,429
25,119,Nonmatching,Self,Friend,1,553
25,120,Nonmatching,Self,Friend,1,620
25,121,Matching,Self,Self,1,615
11,27,Nonmatching,Friend,Self,0,444
11,37,Nonmatching,Friend,Self,0,582
11,42,Matching,Friend,Self,0,850
11,56,Nonmatching,Friend,Self,0,746
25,126,Nonmatching,Self,Self,1,415
11,90,Nonmatching,Friend,Friend,0,453
11,91,Matching,Friend,Friend,0,604
25,129,Matching,Self,Friend,1,637
25,130,Nonmatching,Self,Self,1,607
25,131,Nonmatching,Self,Friend,1,517
25,132,Nonmatching,Self,Friend,1,449
