subject,trialnum,shape,label,type,correct,latency,blocktype
739685494,1,stranger,self,nonmatch,0,478,blocked
739685494,2,stranger,friend,nonmatch,1,603,blocked
739685494,3,stranger,friend,nonmatch,1,426,blocked
739685494,4,stranger,friend,nonmatch,0,450,blocked
739685494,5,stranger,stranger,match,1,560,blocked
739685494,6,stranger,stranger,match,1,416,blocked
739685494,7,stranger,stranger,match,1,533,blocked
739685494,8,stranger,friend,nonmatch,1,484,blocked
739685494,9,stranger,stranger,match,1,531,blocked
739685494,10,stranger,stranger,match,1,427,blocked
739685494,11,stranger,stranger,match,1,403,blocked
739685494,12,stranger,stranger,match,1,363,blocked
739685494,13,stranger,friend,nonmatch,1,442,blocked
739685494,14,stranger,stranger,match,1,425,blocked
739685494,15,stranger,stranger,match,1,379,blocked
739685494,16,stranger,stranger,match,1,395,blocked
739685494,17,stranger,friend,nonmatch,1,428,blocked
739685494,18,stranger,stranger,match,1,440,blocked
739685494,19,stranger,stranger,match,1,391,blocked
739685494,20,stranger,friend,nonmatch,1,418,blocked
739685494,21,stranger,self,nonmatch,0,391,blocked
739685494,22,stranger,stranger,match,1,465,blocked
739685494,23,stranger,stranger,match,1,756,blocked
739685494,24,stranger,stranger,match,1,413,blocked
739685494,25,stranger,stranger,match,1,358,blocked
739685494,26,stranger,self,nonmatch,1,353,blocked
739685494,27,stranger,stranger,match,1,379,blocked
739685494,28,stranger,self,nonmatch,1,412,blocked
739685494,29,stranger,friend,nonmatch,0,291,blocked
739685494,30,stranger,friend,nonmatch,0,346,blocked
739685494,31,stranger,self,nonmatch,1,439,blocked
739685494,32,stranger,stranger,match,1,345,blocked
739685494,33,stranger,self,nonmatch,1,428,blocked
739685494,34,stranger,stranger,match,1,414,blocked
739685494,35,stranger,stranger,match,1,390,blocked
739685494,36,stranger,friend,nonmatch,1,394,blocked
739685494,37,stranger,stranger,match,1,334,blocked
739685494,38,stranger,self,nonmatch,1,493,blocked
739685494,39,stranger,stranger,match,1,357,blocked
739685494,40,stranger,stranger,match,1,394,blocked
739685494,41,stranger,friend,nonmatch,1,382,blocked
739685494,42,stranger,friend,nonmatch,1,402,blocked
739685494,43,stranger,self,nonmatch,0,383,blocked
739685494,44,stranger,stranger,match,1,488,blocked
739685494,45,stranger,self,nonmatch,1,426,blocked
739685494,46,stranger,self,nonmatch,1,385,blocked
739685494,47,stranger,friend,nonmatch,0,380,blocked
739685494,48,stranger,self,nonmatch,0,336,blocked
739685494,49,stranger,stranger,match,1,374,blocked
739685494,50,stranger,stranger,match,0,376,blocked
739685494,51,stranger,stranger,match,1,715,blocked
739685494,52,stranger,self,nonmatch,1,506,blocked
739685494,53,stranger,friend,nonmatch,1,644,blocked
739685494,54,stranger,friend,nonmatch,0,423,blocked
739685494,55,stranger,self,nonmatch,1,365,blocked
739685494,56,stranger,self,nonmatch,1,468,blocked
739685494,57,stranger,stranger,match,1,386,blocked
739685494,58,stranger,stranger,match,1,426,blocked
739685494,59,stranger,stranger,match,1,338,blocked
739685494,60,stranger,self,nonmatch,1,308,blocked
739685494,1,self,self,match,1,680,blocked
739685494,2,self,self,match,1,342,blocked
739685494,3,self,friend,nonmatch,1,315,blocked
739685494,4,self,friend,nonmatch,1,390,blocked
739685494,5,self,stranger,nonmatch,0,397,blocked
739685494,6,self,self,match,1,352,blocked
739685494,7,self,self,match,1,524,blocked
739685494,8,self,self,match,1,369,blocked
739685494,9,self,self,match,1,355,blocked
739685494,10,self,friend,nonmatch,1,323,blocked
739685494,11,self,stranger,nonmatch,1,351,blocked
739685494,12,self,self,match,1,281,blocked
739685494,13,self,self,match,1,323,blocked
739685494,14,self,stranger,nonmatch,0,329,blocked
739685494,15,self,stranger,nonmatch,1,448,blocked
739685494,16,self,self,match,1,376,blocked
739685494,17,self,self,match,1,329,blocked
739685494,18,self,self,match,1,328,blocked
739685494,19,self,stranger,nonmatch,1,390,blocked
739685494,20,self,self,match,1,379,blocked
739685494,21,self,friend,nonmatch,1,386,blocked
739685494,22,self,stranger,nonmatch,0,345,blocked
739685494,23,self,self,match,1,357,blocked
739685494,24,self,self,match,1,237,blocked
739685494,25,self,friend,nonmatch,1,342,blocked
739685494,26,self,stranger,nonmatch,0,363,blocked
739685494,27,self,self,match,1,342,blocked
739685494,28,self,friend,nonmatch,1,382,blocked
739685494,29,self,self,match,1,352,blocked
739685494,30,self,self,match,1,342,blocked
739685494,31,self,self,match,1,315,blocked
739685494,32,self,self,match,1,282,blocked
739685494,33,self,self,match,1,350,blocked
739685494,34,self,self,match,1,423,blocked
739685494,35,self,friend,nonmatch,1,293,blocked
739685494,36,self,self,match,1,361,blocked
739685494,37,self,stranger,nonmatch,1,340,blocked
739685494,38,self,self,match,1,408,blocked
739685494,39,self,self,match,1,457,blocked
739685494,40,self,self,match,1,312,blocked
739685494,41,self,self,match,1,296,blocked
739685494,42,self,friend,nonmatch,0,346,blocked
739685494,43,self,stranger,nonmatch,1,357,blocked
739685494,44,self,self,match,1,413,blocked
739685494,45,self,self,match,1,330,blocked
739685494,46,self,stranger,nonmatch,1,346,blocked
739685494,47,self,stranger,nonmatch,0,322,blocked
739685494,48,self,friend,nonmatch,1,472,blocked
739685494,49,self,friend,nonmatch,1,395,blocked
739685494,50,self,friend,nonmatch,1,405,blocked
739685494,51,self,friend,nonmatch,1,383,blocked
739685494,52,self,self,match,1,402,blocked
739685494,53,self,friend,nonmatch,1,377,blocked
739685494,54,self,stranger,nonmatch,1,361,blocked
739685494,55,self,stranger,nonmatch,1,388,blocked
739685494,56,self,friend,nonmatch,1,347,blocked
739685494,57,self,self,match,1,318,blocked
739685494,58,self,friend,nonmatch,0,355,blocked
739685494,59,self,stranger,nonmatch,1,428,blocked
739685494,60,self,stranger,nonmatch,1,397,blocked
739685494,1,self,friend,nonmatch,1,482,mixed
739685494,2,self,self,match,0,737,mixed
739685494,3,stranger,stranger,match,1,785,mixed
739685494,4,self,stranger,nonmatch,1,531,mixed
739685494,5,stranger,self,nonmatch,0,525,mixed
739685494,6,self,self,match,1,492,mixed
739685494,7,friend,self,nonmatch,0,589,mixed
739685494,8,friend,stranger,nonmatch,1,571,mixed
739685494,9,stranger,stranger,match,1,852,mixed
739685494,10,stranger,friend,nonmatch,1,926,mixed
739685494,11,self,self,match,1,397,mixed
739685494,12,friend,stranger,nonmatch,1,546,mixed
739685494,13,friend,friend,match,1,402,mixed
739685494,14,self,self,match,1,379,mixed
739685494,15,self,friend,nonmatch,1,415,mixed
739685494,16,stranger,friend,nonmatch,1,674,mixed
739685494,17,self,self,match,1,428,mixed
739685494,18,stranger,self,nonmatch,1,544,mixed
739685494,19,friend,self,nonmatch,1,498,mixed
739685494,20,stranger,self,nonmatch,1,487,mixed
739685494,21,stranger,stranger,match,1,429,mixed
739685494,22,stranger,stranger,match,1,433,mixed
739685494,23,friend,stranger,nonmatch,1,449,mixed
739685494,24,friend,friend,match,1,439,mixed
739685494,25,friend,friend,match,1,407,mixed
739685494,26,self,self,match,1,455,mixed
739685494,27,friend,friend,match,1,408,mixed
739685494,28,self,friend,nonmatch,1,407,mixed
739685494,29,friend,friend,match,1,452,mixed
739685494,30,friend,friend,match,1,458,mixed
739685494,31,friend,friend,match,1,433,mixed
739685494,32,friend,self,nonmatch,1,574,mixed
739685494,33,self,self,match,1,407,mixed
739685494,34,stranger,stranger,match,0,646,mixed
739685494,35,stranger,friend,nonmatch,1,451,mixed
739685494,36,friend,friend,match,1,685,mixed
739685494,37,self,self,match,1,401,mixed
739685494,38,stranger,stranger,match,1,389,mixed
739685494,39,self,stranger,nonmatch,0,444,mixed
739685494,40,friend,friend,match,1,376,mixed
739685494,41,stranger,stranger,match,1,406,mixed
739685494,42,stranger,friend,nonmatch,1,410,mixed
739685494,43,stranger,self,nonmatch,1,459,mixed
739685494,44,friend,friend,match,1,722,mixed
739685494,45,self,friend,nonmatch,0,1035,mixed
739685494,46,stranger,self,nonmatch,1,454,mixed
739685494,47,friend,self,nonmatch,1,469,mixed
739685494,48,friend,stranger,nonmatch,0,578,mixed
739685494,49,self,self,match,1,395,mixed
739685494,50,stranger,stranger,match,1,706,mixed
739685494,51,stranger,friend,nonmatch,1,389,mixed
739685494,52,self,self,match,1,372,mixed
739685494,54,stranger,stranger,match,0,550,mixed
739685494,55,self,friend,nonmatch,1,422,mixed
739685494,56,stranger,stranger,match,1,630,mixed
739685494,57,self,stranger,nonmatch,1,816,mixed
739685494,58,self,stranger,nonmatch,1,367,mixed
739685494,59,friend,self,nonmatch,1,526,mixed
739685494,60,self,stranger,nonmatch,1,398,mixed
739685494,1,friend,stranger,nonmatch,1,893,mixed
739685494,2,self,self,match,1,306,mixed
739685494,3,friend,self,nonmatch,1,390,mixed
739685494,4,stranger,self,nonmatch,1,449,mixed
739685494,5,self,self,match,1,328,mixed
739685494,6,friend,self,nonmatch,1,432,mixed
739685494,7,self,stranger,nonmatch,1,394,mixed
739685494,8,stranger,stranger,match,1,395,mixed
739685494,9,self,self,match,1,409,mixed
739685494,10,stranger,self,nonmatch,1,438,mixed
739685494,11,self,self,match,1,333,mixed
739685494,12,friend,friend,match,1,440,mixed
739685494,13,stranger,stranger,match,0,474,mixed
739685494,14,friend,friend,match,1,392,mixed
739685494,15,self,self,match,1,367,mixed
739685494,16,self,self,match,0,434,mixed
739685494,17,stranger,stranger,match,1,632,mixed
739685494,18,friend,friend,match,1,388,mixed
739685494,19,self,self,match,1,346,mixed
739685494,20,self,self,match,1,382,mixed
739685494,21,friend,friend,match,1,631,mixed
739685494,22,stranger,friend,nonmatch,0,309,mixed
739685494,23,stranger,friend,nonmatch,1,479,mixed
739685494,24,friend,self,nonmatch,0,321,mixed
739685494,25,friend,friend,match,1,482,mixed
739685494,26,stranger,friend,nonmatch,1,411,mixed
739685494,27,stranger,self,nonmatch,1,383,mixed
739685494,28,stranger,self,nonmatch,1,426,mixed
739685494,29,stranger,friend,nonmatch,1,544,mixed
739685494,30,self,friend,nonmatch,1,446,mixed
739685494,31,self,stranger,nonmatch,1,439,mixed
739685494,32,friend,self,nonmatch,1,440,mixed
739685494,33,friend,stranger,nonmatch,0,579,mixed
739685494,34,stranger,stranger,match,1,476,mixed
739685494,35,stranger,stranger,match,1,427,mixed
739685494,36,friend,stranger,nonmatch,1,514,mixed
739685494,37,stranger,stranger,match,1,396,mixed
739685494,38,stranger,stranger,match,0,545,mixed
739685494,39,stranger,stranger,match,1,387,mixed
739685494,40,self,friend,nonmatch,1,510,mixed
739685494,41,self,stranger,nonmatch,1,439,mixed
739685494,42,stranger,stranger,match,1,511,mixed
739685494,43,friend,stranger,nonmatch,1,423,mixed
739685494,44,stranger,self,nonmatch,1,398,mixed
739685494,45,self,self,match,1,382,mixed
739685494,46,friend,friend,match,1,516,mixed
739685494,47,stranger,stranger,match,1,481,mixed
739685494,48,self,friend,nonmatch,1,441,mixed
739685494,49,friend,friend,match,1,345,mixed
739685494,50,friend,friend,match,1,400,mixed
739685494,52,friend,friend,match,1,511,mixed
739685494,53,self,self,match,1,427,mixed
739685494,54,stranger,friend,nonmatch,1,390,mixed
739685494,55,self,stranger,nonmatch,0,583,mixed
739685494,56,friend,friend,match,1,369,mixed
739685494,57,friend,stranger,nonmatch,1,517,mixed
739685494,58,self,stranger,nonmatch,1,496,mixed
739685494,59,friend,self,nonmatch,1,720,mixed
739685494,60,self,friend,nonmatch,1,622,mixed
739685494,1,stranger,stranger,match,1,492,mixed
739685494,2,friend,self,nonmatch,1,412,mixed
739685494,3,stranger,self,nonmatch,1,654,mixed
739685494,4,self,self,match,1,350,mixed
739685494,5,self,friend,nonmatch,1,356,mixed
739685494,6,self,self,match,0,449,mixed
739685494,7,self,friend,nonmatch,1,469,mixed
739685494,8,stranger,stranger,match,1,828,mixed
739685494,9,self,self,match,1,379,mixed
739685494,10,stranger,friend,nonmatch,1,426,mixed
739685494,11,self,stranger,nonmatch,0,540,mixed
739685494,12,stranger,stranger,match,0,727,mixed
739685494,13,stranger,stranger,match,1,525,mixed
739685494,14,friend,friend,match,1,647,mixed
739685494,15,stranger,friend,nonmatch,1,605,mixed
739685494,16,stranger,stranger,match,0,716,mixed
739685494,17,self,stranger,nonmatch,1,390,mixed
739685494,18,friend,friend,match,1,398,mixed
739685494,19,self,self,match,1,535,mixed
739685494,20,stranger,friend,nonmatch,1,897,mixed
739685494,21,stranger,stranger,match,1,491,mixed
739685494,22,friend,stranger,nonmatch,1,740,mixed
739685494,23,stranger,self,nonmatch,0,751,mixed
739685494,24,stranger,self,nonmatch,1,520,mixed
739685494,25,friend,self,nonmatch,0,383,mixed
739685494,26,friend,self,nonmatch,1,471,mixed
739685494,27,self,stranger,nonmatch,1,424,mixed
739685494,28,self,friend,nonmatch,1,480,mixed
739685494,29,friend,stranger,nonmatch,0,496,mixed
739685494,30,self,self,match,1,375,mixed
739685494,31,stranger,stranger,match,1,464,mixed
739685494,32,friend,friend,match,0,442,mixed
739685494,33,friend,friend,match,1,389,mixed
739685494,34,stranger,self,nonmatch,1,928,mixed
739685494,35,friend,stranger,nonmatch,1,602,mixed
739685494,36,self,self,match,1,392,mixed
739685494,37,self,self,match,1,666,mixed
739685494,38,stranger,friend,nonmatch,1,551,mixed
739685494,39,stranger,stranger,match,1,806,mixed
739685494,40,stranger,friend,nonmatch,1,477,mixed
739685494,41,friend,self,nonmatch,1,500,mixed
739685494,42,friend,friend,match,1,343,mixed
739685494,43,stranger,stranger,match,1,424,mixed
739685494,44,self,friend,nonmatch,1,418,mixed
739685494,45,self,stranger,nonmatch,1,424,mixed
739685494,46,friend,self,nonmatch,1,436,mixed
739685494,47,friend,friend,match,1,393,mixed
739685494,48,friend,stranger,nonmatch,1,370,mixed
739685494,49,stranger,stranger,match,0,466,mixed
739685494,50,friend,friend,match,0,392,mixed
739685494,51,self,self,match,1,506,mixed
739685494,52,self,self,match,1,349,mixed
739685494,53,self,stranger,nonmatch,1,416,mixed
739685494,54,stranger,self,nonmatch,1,392,mixed
739685494,55,self,self,match,1,375,mixed
739685494,56,self,friend,nonmatch,1,384,mixed
739685494,57,friend,friend,match,1,414,mixed
739685494,58,friend,stranger,nonmatch,1,421,mixed
739685494,59,friend,friend,match,1,577,mixed
739685494,60,friend,friend,match,1,609,mixed
739685494,1,friend,stranger,nonmatch,0,542,blocked
739685494,2,friend,friend,match,1,348,blocked
739685494,3,friend,friend,match,1,429,blocked
739685494,4,friend,friend,match,1,414,blocked
739685494,5,friend,self,nonmatch,1,372,blocked
739685494,6,friend,stranger,nonmatch,0,412,blocked
739685494,7,friend,friend,match,0,540,blocked
739685494,8,friend,self,nonmatch,1,636,blocked
739685494,9,friend,stranger,nonmatch,0,455,blocked
739685494,10,friend,friend,match,0,707,blocked
739685494,11,friend,friend,match,1,398,blocked
739685494,12,friend,self,nonmatch,1,371,blocked
739685494,13,friend,self,nonmatch,1,535,blocked
739685494,14,friend,friend,match,1,609,blocked
739685494,15,friend,friend,match,1,441,blocked
739685494,16,friend,friend,match,1,372,blocked
739685494,17,friend,friend,match,0,772,blocked
739685494,18,friend,friend,match,1,311,blocked
739685494,19,friend,stranger,nonmatch,1,396,blocked
739685494,20,friend,friend,match,1,463,blocked
739685494,21,friend,self,nonmatch,1,407,blocked
739685494,22,friend,friend,match,1,407,blocked
739685494,23,friend,stranger,nonmatch,1,482,blocked
739685494,24,friend,stranger,nonmatch,0,423,blocked
739685494,25,friend,self,nonmatch,1,444,blocked
739685494,26,friend,friend,match,1,403,blocked
739685494,27,friend,stranger,nonmatch,0,403,blocked
739685494,28,friend,friend,match,1,410,blocked
739685494,29,friend,friend,match,1,396,blocked
739685494,30,friend,friend,match,0,389,blocked
739685494,31,friend,friend,match,1,366,blocked
739685494,32,friend,self,nonmatch,1,330,blocked
739685494,33,friend,self,nonmatch,1,358,blocked
739685494,34,friend,stranger,nonmatch,0,327,blocked
739685494,35,friend,friend,match,0,390,blocked
739685494,36,friend,friend,match,1,415,blocked
739685494,37,friend,stranger,nonmatch,1,371,blocked
739685494,38,friend,self,nonmatch,1,425,blocked
739685494,39,friend,stranger,nonmatch,1,353,blocked
739685494,40,friend,self,nonmatch,0,312,blocked
739685494,41,friend,self,nonmatch,1,447,blocked
739685494,42,friend,stranger,nonmatch,1,917,blocked
739685494,43,friend,stranger,nonmatch,0,326,blocked
739685494,44,friend,friend,match,1,323,blocked
739685494,45,friend,friend,match,1,405,blocked
739685494,46,friend,friend,match,1,351,blocked
739685494,47,friend,stranger,nonmatch,1,314,blocked
739685494,48,friend,stranger,nonmatch,1,254,blocked
739685494,49,friend,friend,match,1,298,blocked
739685494,50,friend,self,nonmatch,0,382,blocked
739685494,51,friend,friend,match,1,359,blocked
739685494,52,friend,self,nonmatch,1,306,blocked
739685494,53,friend,friend,match,1,497,blocked
739685494,54,friend,friend,match,1,356,blocked
739685494,55,friend,friend,match,1,360,blocked
739685494,56,friend,self,nonmatch,1,385,blocked
739685494,57,friend,stranger,nonmatch,0,366,blocked
739685494,58,friend,friend,match,1,443,blocked
739685494,59,friend,self,nonmatch,1,338,blocked
739685494,60,friend,friend,match,1,332,blocked
502841139,1,friend,stranger,nonmatch,0,872,blocked
502841139,2,friend,self,nonmatch,1,207,blocked
502841139,3,friend,self,nonmatch,1,384,blocked
502841139,5,friend,friend,match,1,422,blocked
502841139,9,friend,friend,match,0,351,blocked
502841139,11,friend,stranger,nonmatch,0,228,blocked
502841139,12,friend,friend,match,0,459,blocked
502841139,13,friend,friend,match,1,214,blocked
502841139,14,friend,stranger,nonmatch,0,231,blocked
502841139,16,friend,friend,match,0,227,blocked
502841139,17,friend,friend,match,1,366,blocked
502841139,18,friend,friend,match,0,256,blocked
502841139,19,friend,friend,match,1,277,blocked
502841139,21,friend,self,nonmatch,1,239,blocked
502841139,22,friend,friend,match,1,438,blocked
502841139,23,friend,friend,match,1,412,blocked
502841139,24,friend,stranger,nonmatch,1,540,blocked
502841139,25,friend,self,nonmatch,0,316,blocked
502841139,26,friend,friend,match,1,290,blocked
502841139,27,friend,friend,match,1,529,blocked
502841139,28,friend,friend,match,1,442,blocked
502841139,29,friend,self,nonmatch,0,398,blocked
502841139,30,friend,friend,match,1,364,blocked
502841139,31,friend,friend,match,1,366,blocked
502841139,32,friend,stranger,nonmatch,1,404,blocked
502841139,33,friend,stranger,nonmatch,0,379,blocked
502841139,34,friend,friend,match,1,467,blocked
502841139,35,friend,stranger,nonmatch,1,392,blocked
502841139,36,friend,friend,match,1,414,blocked
502841139,37,friend,friend,match,1,570,blocked
502841139,38,friend,stranger,nonmatch,1,467,blocked
502841139,39,friend,friend,match,1,297,blocked
502841139,40,friend,stranger,nonmatch,1,381,blocked
502841139,41,friend,friend,match,1,505,blocked
502841139,42,friend,friend,match,1,409,blocked
502841139,43,friend,stranger,nonmatch,1,299,blocked
502841139,44,friend,self,nonmatch,1,339,blocked
502841139,45,friend,stranger,nonmatch,1,631,blocked
502841139,46,friend,self,nonmatch,1,566,blocked
502841139,47,friend,friend,match,1,351,blocked
502841139,48,friend,self,nonmatch,1,421,blocked
502841139,49,friend,friend,match,1,393,blocked
502841139,50,friend,self,nonmatch,1,476,blocked
502841139,51,friend,self,nonmatch,1,628,blocked
502841139,52,friend,friend,match,1,457,blocked
502841139,53,friend,friend,match,1,550,blocked
502841139,54,friend,self,nonmatch,1,487,blocked
502841139,56,friend,stranger,nonmatch,1,526,blocked
502841139,57,friend,friend,match,1,713,blocked
502841139,59,friend,self,nonmatch,1,743,blocked
502841139,60,friend,self,nonmatch,1,457,blocked
502841139,1,self,friend,nonmatch,1,356,mixed
502841139,3,self,self,match,0,490,mixed
502841139,4,friend,friend,match,0,487,mixed
502841139,5,stranger,self,nonmatch,1,467,mixed
502841139,6,stranger,self,nonmatch,1,502,mixed
502841139,8,stranger,friend,nonmatch,0,472,mixed
502841139,9,friend,friend,match,1,787,mixed
502841139,10,stranger,friend,nonmatch,1,340,mixed
502841139,12,self,friend,nonmatch,0,654,mixed
502841139,13,stranger,self,nonmatch,1,340,mixed
502841139,14,stranger,stranger,match,0,481,mixed
502841139,16,friend,stranger,nonmatch,1,659,mixed
502841139,17,self,self,match,1,484,mixed
502841139,18,friend,friend,match,1,566,mixed
502841139,19,stranger,stranger,match,1,411,mixed
502841139,20,stranger,self,nonmatch,1,491,mixed
502841139,21,friend,stranger,nonmatch,1,618,mixed
502841139,22,friend,friend,match,1,515,mixed
502841139,23,stranger,stranger,match,0,999,mixed
502841139,24,friend,self,nonmatch,1,590,mixed
502841139,25,friend,stranger,nonmatch,1,659,mixed
502841139,26,friend,friend,match,1,550,mixed
502841139,27,self,friend,nonmatch,1,603,mixed
502841139,28,friend,self,nonmatch,1,610,mixed
502841139,29,self,self,match,1,434,mixed
502841139,30,self,stranger,nonmatch,1,475,mixed
502841139,31,stranger,stranger,match,0,622,mixed
502841139,32,self,stranger,nonmatch,0,677,mixed
502841139,33,stranger,stranger,match,0,448,mixed
502841139,34,stranger,stranger,match,1,409,mixed
502841139,35,self,self,match,0,447,mixed
502841139,36,friend,self,nonmatch,1,486,mixed
502841139,37,friend,stranger,nonmatch,1,597,mixed
502841139,38,stranger,stranger,match,1,747,mixed
502841139,39,self,self,match,1,1161,mixed
502841139,40,friend,stranger,nonmatch,1,766,mixed
502841139,41,self,friend,nonmatch,1,1076,mixed
502841139,42,stranger,stranger,match,1,931,mixed
502841139,43,self,self,match,1,827,mixed
502841139,44,stranger,friend,nonmatch,0,985,mixed
502841139,45,self,self,match,1,568,mixed
502841139,46,friend,friend,match,0,347,mixed
502841139,47,stranger,stranger,match,1,374,mixed
502841139,48,self,self,match,0,476,mixed
502841139,50,self,stranger,nonmatch,0,476,mixed
502841139,51,friend,friend,match,1,533,mixed
502841139,52,self,stranger,nonmatch,1,564,mixed
502841139,53,stranger,self,nonmatch,0,548,mixed
502841139,54,stranger,friend,nonmatch,1,640,mixed
502841139,55,friend,friend,match,1,613,mixed
502841139,56,friend,self,nonmatch,0,369,mixed
502841139,57,friend,friend,match,0,311,mixed
502841139,59,self,self,match,1,495,mixed
502841139,60,self,stranger,nonmatch,1,424,mixed
502841139,2,stranger,self,nonmatch,0,320,blocked
502841139,3,stranger,friend,nonmatch,1,325,blocked
502841139,4,stranger,self,nonmatch,1,466,blocked
502841139,5,stranger,stranger,match,0,421,blocked
502841139,6,stranger,self,nonmatch,0,489,blocked
502841139,7,stranger,self,nonmatch,1,249,blocked
502841139,8,stranger,self,nonmatch,1,689,blocked
502841139,9,stranger,friend,nonmatch,0,811,blocked
502841139,10,stranger,friend,nonmatch,1,310,blocked
502841139,11,stranger,stranger,match,0,542,blocked
502841139,12,stranger,stranger,match,1,711,blocked
502841139,13,stranger,stranger,match,1,308,blocked
502841139,14,stranger,friend,nonmatch,1,365,blocked
502841139,15,stranger,stranger,match,1,445,blocked
502841139,16,stranger,self,nonmatch,1,376,blocked
502841139,17,stranger,stranger,match,1,308,blocked
502841139,18,stranger,friend,nonmatch,1,521,blocked
502841139,19,stranger,stranger,match,1,417,blocked
502841139,20,stranger,friend,nonmatch,1,958,blocked
502841139,21,stranger,stranger,match,1,294,blocked
502841139,22,stranger,stranger,match,1,380,blocked
502841139,23,stranger,stranger,match,1,290,blocked
502841139,24,stranger,self,nonmatch,1,232,blocked
502841139,25,stranger,self,nonmatch,1,564,blocked
502841139,26,stranger,stranger,match,1,370,blocked
502841139,27,stranger,self,nonmatch,0,353,blocked
502841139,28,stranger,stranger,match,0,556,blocked
502841139,29,stranger,stranger,match,1,270,blocked
502841139,30,stranger,friend,nonmatch,1,522,blocked
502841139,31,stranger,stranger,match,1,298,blocked
502841139,32,stranger,self,nonmatch,1,551,blocked
502841139,33,stranger,stranger,match,1,391,blocked
502841139,34,stranger,friend,nonmatch,1,483,blocked
502841139,35,stranger,friend,nonmatch,0,232,blocked
502841139,36,stranger,stranger,match,1,355,blocked
502841139,37,stranger,stranger,match,1,314,blocked
502841139,38,stranger,friend,nonmatch,1,522,blocked
502841139,39,stranger,stranger,match,1,351,blocked
502841139,40,stranger,stranger,match,1,415,blocked
502841139,41,stranger,stranger,match,1,280,blocked
502841139,42,stranger,stranger,match,1,311,blocked
502841139,43,stranger,stranger,match,1,361,blocked
502841139,44,stranger,self,nonmatch,1,263,blocked
502841139,45,stranger,stranger,match,1,370,blocked
502841139,46,stranger,stranger,match,1,351,blocked
502841139,47,stranger,self,nonmatch,1,478,blocked
502841139,48,stranger,friend,nonmatch,1,475,blocked
502841139,49,stranger,stranger,match,1,522,blocked
502841139,50,stranger,friend,nonmatch,1,403,blocked
502841139,51,stranger,stranger,match,1,356,blocked
502841139,52,stranger,self,nonmatch,1,333,blocked
502841139,53,stranger,stranger,match,1,366,blocked
502841139,54,stranger,stranger,match,1,266,blocked
502841139,55,stranger,friend,nonmatch,1,379,blocked
502841139,56,stranger,friend,nonmatch,1,369,blocked
502841139,57,stranger,friend,nonmatch,1,412,blocked
502841139,58,stranger,stranger,match,1,477,blocked
502841139,59,stranger,self,nonmatch,1,493,blocked
502841139,60,stranger,stranger,match,1,434,blocked
502841139,1,stranger,stranger,match,1,317,mixed
502841139,2,self,self,match,0,369,mixed
502841139,3,stranger,friend,nonmatch,0,438,mixed
502841139,4,friend,friend,match,1,400,mixed
502841139,5,stranger,self,nonmatch,1,363,mixed
502841139,6,stranger,stranger,match,1,363,mixed
502841139,7,self,stranger,nonmatch,1,1074,mixed
502841139,8,friend,stranger,nonmatch,0,388,mixed
502841139,9,stranger,friend,nonmatch,1,307,mixed
502841139,10,friend,friend,match,1,544,mixed
502841139,11,friend,friend,match,1,302,mixed
502841139,12,friend,friend,match,1,381,mixed
502841139,13,self,self,match,0,404,mixed
502841139,14,stranger,self,nonmatch,1,802,mixed
502841139,15,stranger,stranger,match,0,777,mixed
502841139,16,friend,self,nonmatch,0,1054,mixed
502841139,17,self,self,match,0,387,mixed
502841139,18,self,self,match,1,420,mixed
502841139,19,stranger,self,nonmatch,1,611,mixed
502841139,20,stranger,stranger,match,0,877,mixed
502841139,21,friend,stranger,nonmatch,0,640,mixed
502841139,22,self,friend,nonmatch,1,745,mixed
502841139,23,stranger,stranger,match,1,420,mixed
502841139,24,friend,friend,match,1,627,mixed
502841139,25,self,stranger,nonmatch,1,945,mixed
502841139,26,friend,stranger,nonmatch,1,555,mixed
502841139,27,self,self,match,1,560,mixed
502841139,28,self,friend,nonmatch,1,431,mixed
502841139,29,self,stranger,nonmatch,0,681,mixed
502841139,30,stranger,stranger,match,1,814,mixed
502841139,31,stranger,friend,nonmatch,1,483,mixed
502841139,32,stranger,stranger,match,1,460,mixed
502841139,33,self,stranger,nonmatch,1,563,mixed
502841139,34,friend,self,nonmatch,1,1005,mixed
502841139,35,stranger,friend,nonmatch,1,548,mixed
502841139,36,friend,self,nonmatch,1,516,mixed
502841139,37,stranger,stranger,match,1,437,mixed
502841139,38,stranger,self,nonmatch,1,420,mixed
502841139,39,friend,friend,match,1,695,mixed
502841139,40,friend,friend,match,1,797,mixed
502841139,41,self,self,match,1,613,mixed
502841139,42,friend,friend,match,1,484,mixed
502841139,43,stranger,self,nonmatch,1,422,mixed
502841139,44,friend,friend,match,1,469,mixed
502841139,45,self,stranger,nonmatch,1,434,mixed
502841139,46,friend,stranger,nonmatch,1,822,mixed
502841139,47,self,self,match,1,429,mixed
502841139,48,friend,self,nonmatch,1,513,mixed
502841139,49,friend,friend,match,1,788,mixed
502841139,50,friend,stranger,nonmatch,1,430,mixed
502841139,51,self,self,match,1,495,mixed
502841139,53,self,friend,nonmatch,1,353,mixed
502841139,54,friend,self,nonmatch,1,716,mixed
502841139,55,stranger,stranger,match,1,514,mixed
502841139,56,stranger,stranger,match,1,1047,mixed
502841139,57,self,self,match,1,738,mixed
502841139,58,self,friend,nonmatch,1,567,mixed
502841139,59,self,friend,nonmatch,1,606,mixed
502841139,60,stranger,friend,nonmatch,0,814,mixed
502841139,1,self,friend,nonmatch,1,472,blocked
502841139,2,self,stranger,nonmatch,1,537,blocked
502841139,3,self,self,match,1,454,blocked
502841139,4,self,stranger,nonmatch,1,483,blocked
502841139,5,self,friend,nonmatch,0,587,blocked
502841139,6,self,self,match,0,363,blocked
502841139,7,self,self,match,1,247,blocked
502841139,8,self,friend,nonmatch,0,334,blocked
502841139,10,self,stranger,nonmatch,1,442,blocked
502841139,11,self,self,match,1,477,blocked
502841139,12,self,friend,nonmatch,1,403,blocked
502841139,13,self,stranger,nonmatch,1,479,blocked
502841139,14,self,friend,nonmatch,1,533,blocked
502841139,15,self,stranger,nonmatch,1,361,blocked
502841139,16,self,stranger,nonmatch,1,431,blocked
502841139,17,self,self,match,1,550,blocked
502841139,18,self,self,match,1,697,blocked
502841139,19,self,self,match,1,451,blocked
502841139,20,self,friend,nonmatch,1,440,blocked
502841139,21,self,self,match,1,685,blocked
502841139,22,self,self,match,1,500,blocked
502841139,23,self,stranger,nonmatch,1,366,blocked
502841139,24,self,self,match,1,441,blocked
502841139,25,self,self,match,1,339,blocked
502841139,26,self,self,match,1,401,blocked
502841139,27,self,friend,nonmatch,1,360,blocked
502841139,28,self,stranger,nonmatch,1,1043,blocked
502841139,29,self,stranger,nonmatch,1,447,blocked
502841139,30,self,friend,nonmatch,1,427,blocked
502841139,31,self,self,match,1,282,blocked
502841139,32,self,self,match,1,365,blocked
502841139,33,self,self,match,1,357,blocked
502841139,34,self,friend,nonmatch,1,359,blocked
502841139,35,self,stranger,nonmatch,1,469,blocked
502841139,36,self,stranger,nonmatch,1,472,blocked
502841139,37,self,self,match,1,322,blocked
502841139,38,self,self,match,1,286,blocked
502841139,39,self,self,match,1,243,blocked
502841139,40,self,self,match,1,265,blocked
502841139,41,self,self,match,1,284,blocked
502841139,42,self,friend,nonmatch,0,233,blocked
502841139,43,self,self,match,1,412,blocked
502841139,44,self,friend,nonmatch,1,377,blocked
502841139,45,self,self,match,1,386,blocked
502841139,46,self,self,match,1,388,blocked
502841139,47,self,friend,nonmatch,1,448,blocked
502841139,48,self,stranger,nonmatch,1,476,blocked
502841139,49,self,friend,nonmatch,1,742,blocked
502841139,50,self,friend,nonmatch,1,560,blocked
502841139,51,self,self,match,0,323,blocked
502841139,52,self,self,match,1,312,blocked
502841139,53,self,stranger,nonmatch,1,432,blocked
502841139,54,self,self,match,1,429,blocked
502841139,55,self,friend,nonmatch,1,503,blocked
502841139,56,self,stranger,nonmatch,1,652,blocked
502841139,57,self,self,match,1,517,blocked
502841139,58,self,self,match,1,530,blocked
502841139,59,self,stranger,nonmatch,1,451,blocked
502841139,60,self,self,match,1,1084,blocked
502841139,1,stranger,stranger,match,1,445,mixed
502841139,2,friend,stranger,nonmatch,1,600,mixed
502841139,3,stranger,self,nonmatch,1,795,mixed
502841139,4,stranger,friend,nonmatch,0,915,mixed
502841139,5,friend,friend,match,1,456,mixed
502841139,6,self,self,match,0,521,mixed
502841139,7,self,stranger,nonmatch,1,837,mixed
502841139,8,stranger,stranger,match,1,357,mixed
502841139,9,friend,stranger,nonmatch,1,632,mixed
502841139,10,friend,self,nonmatch,1,645,mixed
502841139,11,stranger,self,nonmatch,1,601,mixed
502841139,12,stranger,friend,nonmatch,1,473,mixed
502841139,13,stranger,stranger,match,1,461,mixed
502841139,14,self,friend,nonmatch,1,620,mixed
502841139,15,self,self,match,1,509,mixed
502841139,16,self,self,match,1,559,mixed
502841139,17,stranger,friend,nonmatch,1,846,mixed
502841139,18,friend,friend,match,1,443,mixed
502841139,19,friend,friend,match,1,289,mixed
502841139,20,friend,self,nonmatch,1,498,mixed
502841139,21,stranger,stranger,match,1,743,mixed
502841139,22,friend,friend,match,1,551,mixed
502841139,23,self,stranger,nonmatch,1,673,mixed
502841139,24,friend,friend,match,1,488,mixed
502841139,26,stranger,self,nonmatch,0,778,mixed
502841139,27,self,stranger,nonmatch,1,639,mixed
502841139,28,self,self,match,1,360,mixed
502841139,29,friend,friend,match,1,491,mixed
502841139,30,friend,friend,match,1,498,mixed
502841139,31,stranger,stranger,match,1,938,mixed
502841139,32,friend,self,nonmatch,1,1107,mixed
502841139,33,stranger,stranger,match,1,382,mixed
502841139,34,friend,friend,match,1,556,mixed
502841139,36,self,stranger,nonmatch,1,471,mixed
502841139,37,stranger,stranger,match,0,657,mixed
502841139,38,stranger,friend,nonmatch,1,530,mixed
502841139,39,self,stranger,nonmatch,1,490,mixed
502841139,40,friend,friend,match,1,350,mixed
502841139,41,stranger,stranger,match,1,409,mixed
502841139,42,stranger,stranger,match,0,402,mixed
502841139,43,self,friend,nonmatch,1,537,mixed
502841139,44,self,friend,nonmatch,1,433,mixed
502841139,45,stranger,stranger,match,1,357,mixed
502841139,46,self,self,match,0,333,mixed
502841139,47,friend,stranger,nonmatch,0,304,mixed
502841139,48,self,self,match,1,614,mixed
502841139,49,self,self,match,1,384,mixed
502841139,50,self,friend,nonmatch,1,416,mixed
502841139,51,self,self,match,1,413,mixed
502841139,52,stranger,self,nonmatch,1,541,mixed
502841139,53,stranger,self,nonmatch,0,367,mixed
502841139,54,self,self,match,0,777,mixed
502841139,55,self,self,match,1,444,mixed
502841139,56,friend,stranger,nonmatch,0,573,mixed
502841139,57,friend,self,nonmatch,1,516,mixed
502841139,58,friend,self,nonmatch,1,506,mixed
502841139,59,friend,stranger,nonmatch,1,449,mixed
502841139,60,self,friend,nonmatch,1,631,mixed
43329048,2,friend,friend,match,1,910,mixed
43329048,3,friend,friend,match,1,566,mixed
43329048,4,friend,friend,match,1,651,mixed
43329048,5,friend,stranger,nonmatch,1,732,mixed
43329048,6,friend,self,nonmatch,1,970,mixed
43329048,7,friend,self,nonmatch,1,896,mixed
43329048,8,friend,stranger,nonmatch,1,1125,mixed
43329048,9,friend,friend,match,1,799,mixed
43329048,10,stranger,self,nonmatch,0,773,mixed
43329048,11,stranger,stranger,match,0,789,mixed
43329048,12,self,self,match,1,816,mixed
43329048,13,friend,friend,match,1,639,mixed
43329048,14,self,self,match,1,555,mixed
43329048,15,stranger,self,nonmatch,0,655,mixed
43329048,16,self,stranger,nonmatch,1,988,mixed
43329048,18,friend,self,nonmatch,1,860,mixed
43329048,19,stranger,self,nonmatch,1,640,mixed
43329048,20,stranger,stranger,match,1,851,mixed
43329048,21,stranger,self,nonmatch,1,887,mixed
43329048,22,stranger,friend,nonmatch,0,842,mixed
43329048,23,self,stranger,nonmatch,1,1021,mixed
43329048,25,stranger,stranger,match,1,820,mixed
43329048,26,friend,stranger,nonmatch,0,969,mixed
43329048,27,self,self,match,1,554,mixed
43329048,28,stranger,friend,nonmatch,1,747,mixed
43329048,30,friend,friend,match,1,971,mixed
43329048,31,stranger,stranger,match,0,710,mixed
43329048,32,self,friend,nonmatch,1,686,mixed
43329048,33,stranger,stranger,match,1,639,mixed
43329048,34,friend,self,nonmatch,1,1182,mixed
43329048,36,self,self,match,1,534,mixed
43329048,37,self,friend,nonmatch,1,603,mixed
43329048,38,friend,stranger,nonmatch,0,605,mixed
43329048,39,self,stranger,nonmatch,1,997,mixed
43329048,40,self,self,match,1,534,mixed
43329048,41,stranger,friend,nonmatch,1,967,mixed
43329048,42,stranger,stranger,match,1,668,mixed
43329048,43,self,self,match,1,648,mixed
43329048,44,self,self,match,1,616,mixed
43329048,45,stranger,friend,nonmatch,1,738,mixed
43329048,46,self,self,match,1,844,mixed
43329048,47,self,self,match,1,405,mixed
43329048,48,stranger,stranger,match,0,827,mixed
43329048,49,self,friend,nonmatch,1,1122,mixed
43329048,50,friend,friend,match,1,939,mixed
43329048,51,self,friend,nonmatch,1,697,mixed
43329048,52,friend,friend,match,0,1199,mixed
43329048,53,self,self,match,1,533,mixed
43329048,54,stranger,stranger,match,1,881,mixed
43329048,55,friend,friend,match,1,871,mixed
43329048,56,stranger,self,nonmatch,1,820,mixed
43329048,57,friend,stranger,nonmatch,1,631,mixed
43329048,58,friend,self,nonmatch,1,746,mixed
43329048,59,self,stranger,nonmatch,1,791,mixed
43329048,60,stranger,stranger,match,0,838,mixed
43329048,1,self,self,match,1,485,blocked
43329048,2,self,self,match,1,401,blocked
43329048,3,self,stranger,nonmatch,1,478,blocked
43329048,4,self,friend,nonmatch,1,835,blocked
43329048,5,self,self,match,1,615,blocked
43329048,6,self,stranger,nonmatch,1,541,blocked
43329048,7,self,self,match,1,657,blocked
43329048,8,self,self,match,1,562,blocked
43329048,9,self,stranger,nonmatch,1,477,blocked
43329048,10,self,self,match,1,435,blocked
43329048,11,self,self,match,1,522,blocked
43329048,12,self,stranger,nonmatch,1,564,blocked
43329048,13,self,self,match,1,506,blocked
43329048,14,self,friend,nonmatch,1,832,blocked
43329048,15,self,friend,nonmatch,1,613,blocked
43329048,16,self,friend,nonmatch,1,519,blocked
43329048,17,self,friend,nonmatch,1,559,blocked
43329048,18,self,self,match,1,487,blocked
43329048,19,self,stranger,nonmatch,1,492,blocked
43329048,20,self,stranger,nonmatch,1,621,blocked
43329048,21,self,friend,nonmatch,1,591,blocked
43329048,22,self,self,match,1,530,blocked
43329048,23,self,self,match,1,546,blocked
43329048,24,self,stranger,nonmatch,1,547,blocked
43329048,25,self,stranger,nonmatch,1,511,blocked
43329048,26,self,self,match,1,474,blocked
43329048,27,self,friend,nonmatch,1,560,blocked
43329048,28,self,friend,nonmatch,1,1022,blocked
43329048,29,self,stranger,nonmatch,1,517,blocked
43329048,30,self,self,match,1,450,blocked
43329048,31,self,stranger,nonmatch,1,441,blocked
43329048,32,self,stranger,nonmatch,1,614,blocked
43329048,33,self,stranger,nonmatch,1,509,blocked
43329048,34,self,self,match,1,648,blocked
43329048,35,self,friend,nonmatch,1,630,blocked
43329048,36,self,stranger,nonmatch,1,632,blocked
43329048,37,self,friend,nonmatch,1,795,blocked
43329048,38,self,stranger,nonmatch,1,672,blocked
43329048,39,self,stranger,nonmatch,1,510,blocked
43329048,40,self,self,match,1,509,blocked
43329048,41,self,friend,nonmatch,1,875,blocked
43329048,42,self,self,match,1,580,blocked
43329048,43,self,self,match,1,582,blocked
43329048,44,self,self,match,1,397,blocked
43329048,45,self,self,match,1,379,blocked
43329048,46,self,self,match,1,348,blocked
43329048,47,self,self,match,1,256,blocked
43329048,49,self,self,match,1,536,blocked
43329048,50,self,self,match,1,414,blocked
43329048,51,self,self,match,1,359,blocked
43329048,52,self,friend,nonmatch,1,505,blocked
43329048,53,self,friend,nonmatch,1,541,blocked
43329048,54,self,self,match,1,499,blocked
43329048,55,self,friend,nonmatch,1,624,blocked
43329048,56,self,self,match,1,516,blocked
43329048,57,self,self,match,1,414,blocked
43329048,58,self,self,match,1,381,blocked
43329048,59,self,self,match,1,352,blocked
43329048,60,self,self,match,1,359,blocked
43329048,1,self,self,match,1,434,mixed
43329048,2,stranger,stranger,match,1,860,mixed
43329048,3,self,self,match,1,445,mixed
43329048,4,friend,self,nonmatch,1,723,mixed
43329048,5,self,self,match,1,619,mixed
43329048,6,stranger,stranger,match,1,712,mixed
43329048,7,stranger,self,nonmatch,1,832,mixed
43329048,8,stranger,stranger,match,0,463,mixed
43329048,9,friend,stranger,nonmatch,1,831,mixed
43329048,10,self,stranger,nonmatch,1,711,mixed
43329048,11,stranger,stranger,match,1,749,mixed
43329048,12,self,self,match,1,445,mixed
43329048,13,friend,stranger,nonmatch,1,938,mixed
43329048,14,self,stranger,nonmatch,0,381,mixed
43329048,15,stranger,self,nonmatch,1,833,mixed
43329048,16,friend,stranger,nonmatch,1,833,mixed
43329048,17,friend,self,nonmatch,1,500,mixed
43329048,18,self,self,match,1,484,mixed
43329048,19,stranger,stranger,match,0,595,mixed
43329048,20,friend,friend,match,1,795,mixed
43329048,21,stranger,stranger,match,1,899,mixed
43329048,22,self,stranger,nonmatch,1,556,mixed
43329048,23,self,friend,nonmatch,1,1015,mixed
43329048,24,self,self,match,1,465,mixed
43329048,25,friend,friend,match,1,656,mixed
43329048,26,stranger,friend,nonmatch,1,680,mixed
43329048,27,friend,stranger,nonmatch,0,1192,mixed
43329048,28,self,self,match,1,460,mixed
43329048,29,stranger,friend,nonmatch,0,760,mixed
43329048,30,stranger,stranger,match,0,500,mixed
43329048,31,friend,friend,match,1,776,mixed
43329048,32,friend,self,nonmatch,1,643,mixed
43329048,33,friend,friend,match,1,550,mixed
43329048,34,friend,friend,match,1,402,mixed
43329048,35,friend,friend,match,1,372,mixed
43329048,36,friend,self,nonmatch,0,623,mixed
43329048,37,self,stranger,nonmatch,1,696,mixed
43329048,38,stranger,friend,nonmatch,1,809,mixed
43329048,39,stranger,friend,nonmatch,1,517,mixed
43329048,40,self,self,match,1,364,mixed
43329048,41,self,self,match,1,398,mixed
43329048,42,friend,friend,match,1,586,mixed
43329048,43,self,friend,nonmatch,1,640,mixed
43329048,44,self,stranger,nonmatch,1,899,mixed
43329048,45,stranger,stranger,match,0,551,mixed
43329048,46,self,self,match,1,395,mixed
43329048,47,self,friend,nonmatch,1,936,mixed
43329048,48,friend,friend,match,1,479,mixed
43329048,49,self,friend,nonmatch,1,699,mixed
43329048,50,stranger,stranger,match,1,666,mixed
43329048,51,self,friend,nonmatch,1,665,mixed
43329048,52,friend,stranger,nonmatch,0,543,mixed
43329048,53,stranger,self,nonmatch,1,803,mixed
43329048,54,friend,friend,match,0,770,mixed
43329048,55,stranger,stranger,match,0,954,mixed
43329048,56,stranger,self,nonmatch,1,806,mixed
43329048,57,stranger,friend,nonmatch,1,688,mixed
43329048,58,friend,self,nonmatch,1,568,mixed
43329048,59,friend,friend,match,1,855,mixed
43329048,60,stranger,self,nonmatch,1,600,mixed
43329048,1,friend,stranger,nonmatch,1,626,mixed
43329048,2,self,self,match,1,457,mixed
43329048,3,friend,stranger,nonmatch,1,661,mixed
43329048,4,self,stranger,nonmatch,1,621,mixed
43329048,5,self,stranger,nonmatch,0,549,mixed
43329048,6,self,self,match,1,532,mixed
43329048,7,stranger,stranger,match,1,559,mixed
43329048,8,stranger,self,nonmatch,1,641,mixed
43329048,9,stranger,friend,nonmatch,1,617,mixed
43329048,10,self,friend,nonmatch,1,575,mixed
43329048,11,self,self,match,1,451,mixed
43329048,12,stranger,stranger,match,1,659,mixed
43329048,13,friend,friend,match,1,556,mixed
43329048,14,friend,friend,match,1,384,mixed
43329048,15,stranger,stranger,match,1,542,mixed
43329048,16,friend,friend,match,1,508,mixed
43329048,17,friend,friend,match,1,431,mixed
43329048,18,stranger,friend,nonmatch,1,510,mixed
43329048,19,friend,friend,match,1,546,mixed
43329048,20,self,friend,nonmatch,1,578,mixed
43329048,21,friend,stranger,nonmatch,1,1190,mixed
43329048,22,stranger,stranger,match,1,765,mixed
43329048,23,stranger,friend,nonmatch,1,871,mixed
43329048,24,stranger,self,nonmatch,1,853,mixed
43329048,25,friend,friend,match,1,578,mixed
43329048,26,friend,self,nonmatch,1,613,mixed
43329048,27,self,self,match,0,729,mixed
43329048,29,self,self,match,1,463,mixed
43329048,31,stranger,friend,nonmatch,1,672,mixed
43329048,33,friend,friend,match,1,408,mixed
43329048,34,friend,friend,match,1,813,mixed
43329048,35,stranger,self,nonmatch,1,586,mixed
43329048,37,stranger,stranger,match,0,421,mixed
43329048,38,friend,stranger,nonmatch,1,527,mixed
43329048,39,stranger,friend,nonmatch,0,542,mixed
43329048,40,friend,self,nonmatch,1,754,mixed
43329048,41,self,friend,nonmatch,1,519,mixed
43329048,42,self,self,match,1,450,mixed
43329048,43,stranger,self,nonmatch,1,449,mixed
43329048,44,self,friend,nonmatch,1,648,mixed
43329048,45,stranger,stranger,match,0,700,mixed
43329048,46,self,friend,nonmatch,1,1120,mixed
43329048,47,self,self,match,1,389,mixed
43329048,48,self,self,match,1,407,mixed
43329048,49,stranger,stranger,match,0,526,mixed
43329048,50,stranger,stranger,match,1,677,mixed
43329048,51,stranger,stranger,match,1,741,mixed
43329048,52,self,stranger,nonmatch,1,614,mixed
43329048,53,friend,self,nonmatch,0,502,mixed
43329048,56,self,self,match,1,323,mixed
43329048,58,friend,friend,match,1,624,mixed
43329048,59,stranger,stranger,match,0,374,mixed
43329048,1,stranger,friend,nonmatch,1,727,blocked
43329048,2,stranger,stranger,match,1,695,blocked
43329048,3,stranger,stranger,match,1,390,blocked
43329048,4,stranger,stranger,match,1,345,blocked
43329048,5,stranger,friend,nonmatch,1,503,blocked
43329048,6,stranger,stranger,match,1,375,blocked
43329048,7,stranger,self,nonmatch,1,724,blocked
43329048,8,stranger,stranger,match,1,557,blocked
43329048,9,stranger,friend,nonmatch,1,601,blocked
43329048,10,stranger,friend,nonmatch,1,580,blocked
43329048,11,stranger,stranger,match,1,414,blocked
43329048,12,stranger,self,nonmatch,1,506,blocked
43329048,13,stranger,friend,nonmatch,1,694,blocked
43329048,14,stranger,self,nonmatch,0,516,blocked
43329048,15,stranger,self,nonmatch,1,790,blocked
43329048,16,stranger,stranger,match,1,503,blocked
43329048,17,stranger,stranger,match,1,464,blocked
43329048,18,stranger,stranger,match,1,396,blocked
43329048,19,stranger,stranger,match,1,387,blocked
43329048,20,stranger,stranger,match,1,393,blocked
43329048,21,stranger,stranger,match,1,365,blocked
43329048,22,stranger,stranger,match,1,298,blocked
43329048,23,stranger,friend,nonmatch,1,499,blocked
43329048,24,stranger,stranger,match,1,359,blocked
43329048,25,stranger,friend,nonmatch,1,454,blocked
43329048,26,stranger,stranger,match,1,372,blocked
43329048,27,stranger,stranger,match,1,399,blocked
43329048,28,stranger,stranger,match,1,332,blocked
43329048,29,stranger,stranger,match,1,330,blocked
43329048,30,stranger,stranger,match,1,326,blocked
43329048,31,stranger,stranger,match,1,279,blocked
43329048,32,stranger,self,nonmatch,1,426,blocked
43329048,33,stranger,friend,nonmatch,1,440,blocked
43329048,34,stranger,self,nonmatch,0,415,blocked
43329048,35,stranger,stranger,match,1,535,blocked
43329048,36,stranger,stranger,match,1,385,blocked
43329048,37,stranger,stranger,match,0,587,blocked
43329048,38,stranger,self,nonmatch,1,437,blocked
43329048,39,stranger,self,nonmatch,1,406,blocked
43329048,40,stranger,stranger,match,1,542,blocked
43329048,41,stranger,stranger,match,0,548,blocked
43329048,42,stranger,self,nonmatch,1,461,blocked
43329048,43,stranger,friend,nonmatch,1,495,blocked
43329048,44,stranger,stranger,match,1,391,blocked
43329048,45,stranger,self,nonmatch,1,409,blocked
43329048,46,stranger,friend,nonmatch,0,518,blocked
43329048,47,stranger,friend,nonmatch,1,653,blocked
43329048,48,stranger,friend,nonmatch,0,535,blocked
43329048,49,stranger,friend,nonmatch,1,639,blocked
43329048,50,stranger,friend,nonmatch,1,509,blocked
43329048,51,stranger,self,nonmatch,1,387,blocked
43329048,52,stranger,stranger,match,1,470,blocked
43329048,53,stranger,self,nonmatch,1,464,blocked
43329048,54,stranger,stranger,match,1,536,blocked
43329048,55,stranger,self,nonmatch,1,432,blocked
43329048,56,stranger,self,nonmatch,0,477,blocked
43329048,57,stranger,stranger,match,1,593,blocked
43329048,58,stranger,stranger,match,1,695,blocked
43329048,59,stranger,self,nonmatch,1,441,blocked
43329048,60,stranger,friend,nonmatch,1,543,blocked
43329048,1,friend,friend,match,1,780,blocked
43329048,2,friend,friend,match,1,468,blocked
43329048,3,friend,friend,match,1,557,blocked
43329048,4,friend,self,nonmatch,1,449,blocked
43329048,5,friend,stranger,nonmatch,1,540,blocked
43329048,6,friend,friend,match,1,471,blocked
43329048,7,friend,friend,match,1,354,blocked
43329048,8,friend,self,nonmatch,1,370,blocked
43329048,9,friend,friend,match,1,403,blocked
43329048,10,friend,friend,match,1,449,blocked
43329048,11,friend,self,nonmatch,1,482,blocked
43329048,12,friend,friend,match,1,682,blocked
43329048,13,friend,stranger,nonmatch,1,434,blocked
43329048,14,friend,friend,match,1,425,blocked
43329048,15,friend,friend,match,1,367,blocked
43329048,16,friend,stranger,nonmatch,1,473,blocked
43329048,17,friend,friend,match,1,730,blocked
43329048,18,friend,stranger,nonmatch,1,489,blocked
43329048,19,friend,friend,match,1,350,blocked
43329048,20,friend,stranger,nonmatch,1,439,blocked
43329048,21,friend,friend,match,1,330,blocked
43329048,22,friend,self,nonmatch,1,427,blocked
43329048,23,friend,stranger,nonmatch,1,454,blocked
43329048,24,friend,stranger,nonmatch,1,571,blocked
43329048,25,friend,self,nonmatch,1,472,blocked
43329048,26,friend,self,nonmatch,0,541,blocked
43329048,27,friend,friend,match,1,372,blocked
43329048,28,friend,friend,match,1,396,blocked
43329048,29,friend,stranger,nonmatch,1,508,blocked
43329048,30,friend,friend,match,1,334,blocked
43329048,31,friend,self,nonmatch,1,412,blocked
43329048,32,friend,friend,match,1,527,blocked
43329048,33,friend,friend,match,1,347,blocked
43329048,34,friend,friend,match,1,325,blocked
43329048,35,friend,friend,match,1,264,blocked
43329048,36,friend,friend,match,1,324,blocked
43329048,38,friend,stranger,nonmatch,0,307,blocked
43329048,39,friend,stranger,nonmatch,1,418,blocked
43329048,40,friend,self,nonmatch,0,474,blocked
43329048,41,friend,stranger,nonmatch,1,539,blocked
43329048,42,friend,friend,match,0,359,blocked
43329048,43,friend,friend,match,1,324,blocked
43329048,44,friend,self,nonmatch,0,393,blocked
43329048,45,friend,friend,match,1,382,blocked
43329048,46,friend,self,nonmatch,1,619,blocked
43329048,47,friend,self,nonmatch,1,542,blocked
43329048,48,friend,stranger,nonmatch,0,420,blocked
43329048,49,friend,friend,match,1,434,blocked
43329048,50,friend,stranger,nonmatch,1,426,blocked
43329048,51,friend,friend,match,1,549,blocked
43329048,52,friend,friend,match,1,328,blocked
43329048,53,friend,stranger,nonmatch,1,370,blocked
43329048,54,friend,stranger,nonmatch,1,406,blocked
43329048,55,friend,friend,match,1,571,blocked
43329048,56,friend,self,nonmatch,1,417,blocked
43329048,57,friend,friend,match,1,444,blocked
43329048,58,friend,self,nonmatch,1,430,blocked
43329048,59,friend,self,nonmatch,0,394,blocked
43329048,60,friend,self,nonmatch,1,436,blocked
922921399,1,self,self,match,1,835,blocked
922921399,2,self,self,match,1,718,blocked
922921399,3,self,stranger,nonmatch,1,567,blocked
922921399,4,self,self,match,1,615,blocked
922921399,5,self,stranger,nonmatch,1,529,blocked
922921399,6,self,self,match,1,615,blocked
922921399,7,self,friend,nonmatch,1,677,blocked
922921399,8,self,self,match,1,493,blocked
922921399,9,self,self,match,1,364,blocked
922921399,10,self,self,match,1,343,blocked
922921399,11,self,stranger,nonmatch,1,479,blocked
922921399,12,self,self,match,1,678,blocked
922921399,13,self,stranger,nonmatch,0,398,blocked
922921399,14,self,friend,nonmatch,1,808,blocked
922921399,15,self,self,match,1,475,blocked
922921399,16,self,stranger,nonmatch,1,474,blocked
922921399,17,self,stranger,nonmatch,1,438,blocked
922921399,18,self,self,match,1,387,blocked
922921399,19,self,stranger,nonmatch,1,431,blocked
922921399,20,self,friend,nonmatch,1,421,blocked
922921399,21,self,friend,nonmatch,1,423,blocked
922921399,22,self,friend,nonmatch,1,410,blocked
922921399,23,self,self,match,1,469,blocked
922921399,24,self,stranger,nonmatch,1,447,blocked
922921399,25,self,friend,nonmatch,1,446,blocked
922921399,26,self,friend,nonmatch,1,450,blocked
922921399,27,self,stranger,nonmatch,1,477,blocked
922921399,28,self,self,match,1,332,blocked
922921399,29,self,self,match,1,419,blocked
922921399,30,self,self,match,1,425,blocked
922921399,31,self,self,match,1,425,blocked
922921399,32,self,self,match,1,424,blocked
922921399,33,self,self,match,1,386,blocked
922921399,34,self,self,match,1,362,blocked
922921399,35,self,self,match,1,381,blocked
922921399,36,self,friend,nonmatch,1,472,blocked
922921399,37,self,self,match,1,504,blocked
922921399,38,self,self,match,1,469,blocked
922921399,39,self,self,match,1,367,blocked
922921399,40,self,self,match,1,386,blocked
922921399,41,self,friend,nonmatch,1,630,blocked
922921399,42,self,self,match,1,328,blocked
922921399,43,self,stranger,nonmatch,1,506,blocked
922921399,44,self,friend,nonmatch,0,622,blocked
922921399,45,self,stranger,nonmatch,1,503,blocked
922921399,46,self,stranger,nonmatch,1,435,blocked
922921399,47,self,stranger,nonmatch,1,471,blocked
922921399,48,self,self,match,1,389,blocked
922921399,49,self,friend,nonmatch,1,378,blocked
922921399,50,self,self,match,1,383,blocked
922921399,51,self,self,match,1,481,blocked
922921399,52,self,self,match,1,380,blocked
922921399,53,self,friend,nonmatch,1,499,blocked
922921399,54,self,stranger,nonmatch,1,480,blocked
922921399,55,self,friend,nonmatch,1,407,blocked
922921399,56,self,friend,nonmatch,1,414,blocked
922921399,57,self,stranger,nonmatch,1,461,blocked
922921399,58,self,friend,nonmatch,1,577,blocked
922921399,59,self,self,match,1,605,blocked
922921399,60,self,self,match,1,403,blocked
922921399,1,self,self,match,1,616,mixed
922921399,2,stranger,self,nonmatch,1,457,mixed
922921399,3,stranger,stranger,match,1,472,mixed
922921399,4,stranger,friend,nonmatch,1,483,mixed
922921399,5,stranger,stranger,match,1,600,mixed
922921399,6,friend,friend,match,1,527,mixed
922921399,7,stranger,stranger,match,1,480,mixed
922921399,8,self,stranger,nonmatch,1,470,mixed
922921399,9,self,friend,nonmatch,1,989,mixed
922921399,10,friend,friend,match,1,722,mixed
922921399,11,friend,friend,match,1,446,mixed
922921399,12,stranger,self,nonmatch,1,532,mixed
922921399,13,self,self,match,1,488,mixed
922921399,14,friend,self,nonmatch,1,521,mixed
922921399,15,stranger,friend,nonmatch,1,558,mixed
922921399,16,friend,friend,match,1,522,mixed
922921399,17,stranger,friend,nonmatch,1,475,mixed
922921399,18,self,stranger,nonmatch,1,443,mixed
922921399,19,friend,friend,match,1,460,mixed
922921399,20,friend,self,nonmatch,1,494,mixed
922921399,21,friend,stranger,nonmatch,1,427,mixed
922921399,22,self,friend,nonmatch,1,455,mixed
922921399,23,stranger,stranger,match,1,455,mixed
922921399,24,self,friend,nonmatch,1,464,mixed
922921399,25,friend,stranger,nonmatch,1,511,mixed
922921399,26,friend,friend,match,1,380,mixed
922921399,27,stranger,stranger,match,1,434,mixed
922921399,28,stranger,self,nonmatch,1,507,mixed
922921399,29,stranger,self,nonmatch,1,451,mixed
922921399,30,stranger,stranger,match,1,424,mixed
922921399,31,self,self,match,1,591,mixed
922921399,32,friend,friend,match,1,537,mixed
922921399,33,self,self,match,1,386,mixed
922921399,34,self,stranger,nonmatch,1,469,mixed
922921399,35,friend,stranger,nonmatch,1,569,mixed
922921399,36,friend,self,nonmatch,1,550,mixed
922921399,37,stranger,stranger,match,1,440,mixed
922921399,38,stranger,friend,nonmatch,1,458,mixed
922921399,39,stranger,friend,nonmatch,1,458,mixed
922921399,40,friend,self,nonmatch,1,455,mixed
922921399,41,friend,self,nonmatch,1,504,mixed
922921399,42,friend,friend,match,1,671,mixed
922921399,43,self,friend,nonmatch,1,494,mixed
922921399,44,friend,friend,match,1,446,mixed
922921399,45,self,friend,nonmatch,1,404,mixed
922921399,46,friend,stranger,nonmatch,1,361,mixed
922921399,47,self,stranger,nonmatch,1,380,mixed
922921399,48,friend,stranger,nonmatch,1,428,mixed
922921399,49,self,self,match,1,316,mixed
922921399,50,stranger,self,nonmatch,1,601,mixed
922921399,51,stranger,stranger,match,1,570,mixed
922921399,52,friend,friend,match,1,517,mixed
922921399,53,stranger,stranger,match,1,440,mixed
922921399,54,self,self,match,1,402,mixed
922921399,55,stranger,stranger,match,1,398,mixed
922921399,56,self,self,match,1,391,mixed
922921399,57,self,stranger,nonmatch,1,420,mixed
922921399,58,self,self,match,1,365,mixed
922921399,59,self,self,match,1,350,mixed
922921399,60,self,self,match,1,371,mixed
922921399,1,friend,stranger,nonmatch,1,548,mixed
922921399,2,self,self,match,1,359,mixed
922921399,3,friend,self,nonmatch,1,518,mixed
922921399,4,friend,friend,match,1,638,mixed
922921399,5,stranger,friend,nonmatch,1,472,mixed
922921399,6,self,self,match,1,361,mixed
922921399,7,friend,friend,match,1,701,mixed
922921399,8,stranger,stranger,match,1,422,mixed
922921399,9,stranger,stranger,match,1,585,mixed
922921399,10,friend,stranger,nonmatch,1,537,mixed
922921399,11,self,self,match,1,386,mixed
922921399,12,friend,self,nonmatch,0,550,mixed
922921399,13,friend,stranger,nonmatch,1,535,mixed
922921399,14,self,stranger,nonmatch,1,461,mixed
922921399,15,friend,friend,match,1,519,mixed
922921399,16,friend,stranger,nonmatch,1,739,mixed
922921399,17,stranger,stranger,match,1,339,mixed
922921399,18,stranger,stranger,match,1,464,mixed
922921399,19,self,stranger,nonmatch,1,645,mixed
922921399,20,stranger,self,nonmatch,1,646,mixed
922921399,21,self,self,match,1,338,mixed
922921399,22,stranger,stranger,match,0,427,mixed
922921399,23,stranger,friend,nonmatch,1,490,mixed
922921399,24,friend,self,nonmatch,1,592,mixed
922921399,25,friend,self,nonmatch,0,404,mixed
922921399,26,self,self,match,1,308,mixed
922921399,27,friend,self,nonmatch,1,561,mixed
922921399,28,self,self,match,1,399,mixed
922921399,29,stranger,stranger,match,1,434,mixed
922921399,30,friend,stranger,nonmatch,1,565,mixed
922921399,31,self,self,match,1,412,mixed
922921399,32,friend,friend,match,1,431,mixed
922921399,33,self,stranger,nonmatch,1,433,mixed
922921399,34,self,friend,nonmatch,1,960,mixed
922921399,35,self,stranger,nonmatch,1,499,mixed
922921399,36,self,friend,nonmatch,1,556,mixed
922921399,37,self,self,match,1,424,mixed
922921399,38,friend,friend,match,1,432,mixed
922921399,39,stranger,friend,nonmatch,1,453,mixed
922921399,40,stranger,self,nonmatch,1,497,mixed
922921399,41,self,friend,nonmatch,1,445,mixed
922921399,42,stranger,stranger,match,1,510,mixed
922921399,43,self,self,match,1,382,mixed
922921399,44,friend,friend,match,1,374,mixed
922921399,45,self,friend,nonmatch,1,474,mixed
922921399,46,stranger,stranger,match,1,549,mixed
922921399,47,friend,friend,match,1,531,mixed
922921399,48,stranger,self,nonmatch,1,613,mixed
922921399,49,stranger,self,nonmatch,1,564,mixed
922921399,50,self,stranger,nonmatch,1,424,mixed
922921399,51,stranger,self,nonmatch,1,398,mixed
922921399,52,stranger,friend,nonmatch,1,325,mixed
922921399,53,friend,friend,match,0,825,mixed
922921399,54,stranger,friend,nonmatch,1,437,mixed
922921399,55,friend,friend,match,1,600,mixed
922921399,56,self,self,match,1,426,mixed
922921399,57,self,friend,nonmatch,1,473,mixed
922921399,58,friend,friend,match,1,595,mixed
922921399,59,stranger,stranger,match,1,755,mixed
922921399,60,stranger,stranger,match,1,459,mixed
922921399,1,stranger,self,nonmatch,1,403,blocked
922921399,2,stranger,stranger,match,1,497,blocked
922921399,3,stranger,stranger,match,1,344,blocked
922921399,4,stranger,stranger,match,1,312,blocked
922921399,5,stranger,stranger,match,1,470,blocked
922921399,6,stranger,friend,nonmatch,1,390,blocked
922921399,7,stranger,self,nonmatch,1,525,blocked
922921399,8,stranger,friend,nonmatch,1,555,blocked
922921399,9,stranger,self,nonmatch,1,408,blocked
922921399,10,stranger,stranger,match,1,562,blocked
922921399,11,stranger,stranger,match,1,541,blocked
922921399,12,stranger,stranger,match,1,414,blocked
922921399,13,stranger,friend,nonmatch,1,473,blocked
922921399,14,stranger,friend,nonmatch,1,457,blocked
922921399,15,stranger,friend,nonmatch,1,530,blocked
922921399,16,stranger,self,nonmatch,1,568,blocked
922921399,17,stranger,stranger,match,1,440,blocked
922921399,18,stranger,friend,nonmatch,1,455,blocked
922921399,19,stranger,stranger,match,1,508,blocked
922921399,20,stranger,stranger,match,1,348,blocked
922921399,21,stranger,stranger,match,1,372,blocked
922921399,22,stranger,friend,nonmatch,1,362,blocked
922921399,23,stranger,stranger,match,0,410,blocked
922921399,24,stranger,self,nonmatch,1,460,blocked
922921399,25,stranger,stranger,match,1,427,blocked
922921399,26,stranger,stranger,match,1,419,blocked
922921399,27,stranger,self,nonmatch,1,451,blocked
922921399,28,stranger,stranger,match,1,400,blocked
922921399,29,stranger,stranger,match,1,371,blocked
922921399,30,stranger,self,nonmatch,1,580,blocked
922921399,31,stranger,self,nonmatch,1,588,blocked
922921399,32,stranger,self,nonmatch,1,472,blocked
922921399,33,stranger,stranger,match,1,514,blocked
922921399,34,stranger,friend,nonmatch,1,503,blocked
922921399,35,stranger,self,nonmatch,1,512,blocked
922921399,36,stranger,stranger,match,1,431,blocked
922921399,37,stranger,stranger,match,1,465,blocked
922921399,38,stranger,stranger,match,1,428,blocked
922921399,39,stranger,stranger,match,1,423,blocked
922921399,40,stranger,stranger,match,1,354,blocked
922921399,41,stranger,stranger,match,1,340,blocked
922921399,42,stranger,friend,nonmatch,1,513,blocked
922921399,43,stranger,friend,nonmatch,1,432,blocked
922921399,44,stranger,stranger,match,1,511,blocked
922921399,45,stranger,friend,nonmatch,1,541,blocked
922921399,46,stranger,friend,nonmatch,1,476,blocked
922921399,47,stranger,friend,nonmatch,1,463,blocked
922921399,48,stranger,friend,nonmatch,1,406,blocked
922921399,49,stranger,stranger,match,1,522,blocked
922921399,50,stranger,self,nonmatch,1,561,blocked
922921399,51,stranger,stranger,match,1,457,blocked
922921399,52,stranger,friend,nonmatch,1,453,blocked
922921399,53,stranger,self,nonmatch,1,411,blocked
922921399,54,stranger,self,nonmatch,1,408,blocked
922921399,55,stranger,stranger,match,1,458,blocked
922921399,56,stranger,stranger,match,1,465,blocked
922921399,57,stranger,stranger,match,1,441,blocked
922921399,58,stranger,self,nonmatch,1,362,blocked
922921399,59,stranger,self,nonmatch,1,433,blocked
922921399,60,stranger,stranger,match,1,453,blocked
922921399,1,friend,self,nonmatch,1,542,blocked
922921399,2,friend,friend,match,1,667,blocked
922921399,3,friend,friend,match,1,359,blocked
922921399,4,friend,friend,match,1,356,blocked
922921399,5,friend,self,nonmatch,1,395,blocked
922921399,6,friend,friend,match,1,570,blocked
922921399,7,friend,friend,match,1,406,blocked
922921399,8,friend,friend,match,1,315,blocked
922921399,9,friend,friend,match,1,432,blocked
922921399,10,friend,stranger,nonmatch,1,624,blocked
922921399,11,friend,friend,match,1,446,blocked
922921399,12,friend,stranger,nonmatch,0,549,blocked
922921399,13,friend,stranger,nonmatch,1,557,blocked
922921399,14,friend,friend,match,1,450,blocked
922921399,15,friend,self,nonmatch,1,559,blocked
922921399,16,friend,stranger,nonmatch,1,447,blocked
922921399,17,friend,friend,match,1,341,blocked
922921399,18,friend,self,nonmatch,1,415,blocked
922921399,19,friend,self,nonmatch,1,400,blocked
922921399,20,friend,friend,match,1,382,blocked
922921399,21,friend,self,nonmatch,1,397,blocked
922921399,22,friend,friend,match,1,437,blocked
922921399,23,friend,self,nonmatch,1,402,blocked
922921399,24,friend,stranger,nonmatch,1,624,blocked
922921399,25,friend,stranger,nonmatch,1,539,blocked
922921399,26,friend,stranger,nonmatch,1,448,blocked
922921399,27,friend,self,nonmatch,1,418,blocked
922921399,28,friend,friend,match,1,315,blocked
922921399,29,friend,friend,match,1,390,blocked
922921399,30,friend,stranger,nonmatch,0,459,blocked
922921399,31,friend,stranger,nonmatch,1,565,blocked
922921399,32,friend,friend,match,1,623,blocked
922921399,33,friend,friend,match,1,479,blocked
922921399,34,friend,friend,match,1,386,blocked
922921399,35,friend,self,nonmatch,1,450,blocked
922921399,36,friend,self,nonmatch,1,430,blocked
922921399,37,friend,stranger,nonmatch,1,611,blocked
922921399,38,friend,friend,match,1,488,blocked
922921399,39,friend,self,nonmatch,1,426,blocked
922921399,40,friend,stranger,nonmatch,1,465,blocked
922921399,41,friend,friend,match,1,423,blocked
922921399,42,friend,stranger,nonmatch,1,403,blocked
922921399,43,friend,friend,match,1,525,blocked
922921399,44,friend,friend,match,1,484,blocked
922921399,45,friend,self,nonmatch,1,468,blocked
922921399,46,friend,self,nonmatch,1,409,blocked
922921399,47,friend,self,nonmatch,1,443,blocked
922921399,48,friend,self,nonmatch,1,396,blocked
922921399,49,friend,friend,match,1,330,blocked
922921399,50,friend,friend,match,1,409,blocked
922921399,51,friend,friend,match,1,440,blocked
922921399,52,friend,stranger,nonmatch,1,517,blocked
922921399,53,friend,friend,match,1,419,blocked
922921399,54,friend,friend,match,1,475,blocked
922921399,55,friend,stranger,nonmatch,1,560,blocked
922921399,56,friend,friend,match,1,513,blocked
922921399,57,friend,friend,match,1,348,blocked
922921399,58,friend,friend,match,0,382,blocked
922921399,59,friend,stranger,nonmatch,1,651,blocked
922921399,60,friend,friend,match,1,355,blocked
922921399,1,stranger,stranger,match,1,659,mixed
922921399,2,stranger,stranger,match,1,370,mixed
922921399,3,self,friend,nonmatch,1,964,mixed
922921399,4,self,stranger,nonmatch,1,597,mixed
922921399,5,stranger,friend,nonmatch,1,972,mixed
922921399,6,friend,stranger,nonmatch,1,792,mixed
922921399,7,stranger,stranger,match,1,557,mixed
922921399,8,stranger,self,nonmatch,1,837,mixed
922921399,9,self,friend,nonmatch,1,652,mixed
922921399,10,stranger,self,nonmatch,1,677,mixed
922921399,11,friend,self,nonmatch,1,525,mixed
922921399,12,friend,friend,match,1,458,mixed
922921399,13,self,stranger,nonmatch,1,411,mixed
922921399,14,stranger,friend,nonmatch,1,463,mixed
922921399,15,self,self,match,1,334,mixed
922921399,16,self,friend,nonmatch,1,458,mixed
922921399,17,self,self,match,1,628,mixed
922921399,18,stranger,self,nonmatch,1,547,mixed
922921399,19,stranger,stranger,match,1,547,mixed
922921399,20,stranger,stranger,match,1,521,mixed
922921399,21,stranger,stranger,match,1,409,mixed
922921399,22,friend,self,nonmatch,1,497,mixed
922921399,23,friend,self,nonmatch,1,529,mixed
922921399,24,self,self,match,1,607,mixed
922921399,25,stranger,friend,nonmatch,1,715,mixed
922921399,26,friend,friend,match,1,360,mixed
922921399,27,stranger,stranger,match,1,445,mixed
922921399,28,friend,stranger,nonmatch,1,573,mixed
922921399,29,self,stranger,nonmatch,1,584,mixed
922921399,30,stranger,self,nonmatch,1,706,mixed
922921399,31,self,self,match,1,441,mixed
922921399,32,stranger,stranger,match,1,424,mixed
922921399,33,friend,friend,match,1,431,mixed
922921399,34,friend,self,nonmatch,1,520,mixed
922921399,35,stranger,stranger,match,1,451,mixed
922921399,36,friend,stranger,nonmatch,1,451,mixed
922921399,37,friend,friend,match,1,358,mixed
922921399,38,friend,friend,match,1,468,mixed
922921399,39,friend,friend,match,1,441,mixed
922921399,40,self,self,match,1,355,mixed
922921399,41,self,self,match,1,330,mixed
922921399,42,self,friend,nonmatch,1,414,mixed
922921399,43,friend,friend,match,1,352,mixed
922921399,44,self,self,match,1,357,mixed
922921399,45,self,stranger,nonmatch,1,424,mixed
922921399,46,stranger,friend,nonmatch,0,383,mixed
922921399,47,friend,stranger,nonmatch,1,717,mixed
922921399,48,friend,stranger,nonmatch,1,500,mixed
922921399,49,self,self,match,1,300,mixed
922921399,50,self,self,match,1,375,mixed
922921399,51,friend,friend,match,1,312,mixed
922921399,52,stranger,friend,nonmatch,1,422,mixed
922921399,53,friend,friend,match,0,471,mixed
922921399,54,self,self,match,1,318,mixed
922921399,55,stranger,self,nonmatch,1,459,mixed
922921399,56,self,friend,nonmatch,1,553,mixed
922921399,57,friend,friend,match,1,321,mixed
922921399,58,stranger,stranger,match,1,490,mixed
922921399,59,friend,self,nonmatch,1,401,mixed
922921399,60,self,stranger,nonmatch,1,496,mixed
846210221,2,stranger,friend,nonmatch,1,609,blocked
846210221,3,stranger,friend,nonmatch,1,567,blocked
846210221,4,stranger,friend,nonmatch,1,487,blocked
846210221,5,stranger,friend,nonmatch,1,417,blocked
846210221,7,stranger,stranger,match,1,748,blocked
846210221,8,stranger,stranger,match,1,488,blocked
846210221,9,stranger,self,nonmatch,1,834,blocked
846210221,10,stranger,stranger,match,1,716,blocked
846210221,11,stranger,stranger,match,1,545,blocked
846210221,12,stranger,stranger,match,1,500,blocked
846210221,13,stranger,friend,nonmatch,1,434,blocked
846210221,14,stranger,friend,nonmatch,1,627,blocked
846210221,15,stranger,self,nonmatch,1,513,blocked
846210221,16,stranger,stranger,match,0,479,blocked
846210221,17,stranger,self,nonmatch,1,618,blocked
846210221,18,stranger,stranger,match,1,524,blocked
846210221,19,stranger,friend,nonmatch,1,545,blocked
846210221,20,stranger,self,nonmatch,1,563,blocked
846210221,21,stranger,stranger,match,1,440,blocked
846210221,22,stranger,stranger,match,1,434,blocked
846210221,23,stranger,stranger,match,1,450,blocked
846210221,24,stranger,friend,nonmatch,1,437,blocked
846210221,25,stranger,self,nonmatch,1,529,blocked
846210221,26,stranger,self,nonmatch,1,455,blocked
846210221,27,stranger,stranger,match,1,437,blocked
846210221,28,stranger,self,nonmatch,1,423,blocked
846210221,29,stranger,friend,nonmatch,1,475,blocked
846210221,30,stranger,stranger,match,1,410,blocked
846210221,31,stranger,self,nonmatch,1,405,blocked
846210221,32,stranger,friend,nonmatch,1,443,blocked
846210221,33,stranger,self,nonmatch,1,410,blocked
846210221,34,stranger,self,nonmatch,1,411,blocked
846210221,35,stranger,stranger,match,1,532,blocked
846210221,36,stranger,stranger,match,1,558,blocked
846210221,37,stranger,self,nonmatch,1,527,blocked
846210221,38,stranger,friend,nonmatch,1,476,blocked
846210221,39,stranger,stranger,match,1,396,blocked
846210221,40,stranger,stranger,match,1,433,blocked
846210221,41,stranger,stranger,match,1,402,blocked
846210221,42,stranger,stranger,match,1,449,blocked
846210221,43,stranger,self,nonmatch,1,618,blocked
846210221,44,stranger,stranger,match,1,495,blocked
846210221,45,stranger,stranger,match,1,417,blocked
846210221,46,stranger,stranger,match,1,428,blocked
846210221,47,stranger,stranger,match,1,362,blocked
846210221,48,stranger,stranger,match,1,348,blocked
846210221,49,stranger,self,nonmatch,1,439,blocked
846210221,50,stranger,stranger,match,1,288,blocked
846210221,51,stranger,stranger,match,1,365,blocked
846210221,52,stranger,friend,nonmatch,1,374,blocked
846210221,53,stranger,friend,nonmatch,1,436,blocked
846210221,54,stranger,friend,nonmatch,1,456,blocked
846210221,55,stranger,stranger,match,1,438,blocked
846210221,56,stranger,stranger,match,1,431,blocked
846210221,57,stranger,stranger,match,1,421,blocked
846210221,58,stranger,friend,nonmatch,1,429,blocked
846210221,59,stranger,self,nonmatch,1,455,blocked
846210221,60,stranger,self,nonmatch,1,500,blocked
846210221,1,friend,friend,match,1,606,mixed
846210221,2,friend,stranger,nonmatch,1,494,mixed
846210221,3,friend,stranger,nonmatch,1,637,mixed
846210221,4,friend,self,nonmatch,1,739,mixed
846210221,5,stranger,self,nonmatch,1,760,mixed
846210221,6,friend,friend,match,1,597,mixed
846210221,7,self,self,match,1,549,mixed
846210221,8,stranger,stranger,match,1,521,mixed
846210221,9,self,stranger,nonmatch,1,432,mixed
846210221,10,stranger,self,nonmatch,1,547,mixed
846210221,11,friend,friend,match,1,552,mixed
846210221,12,self,stranger,nonmatch,1,415,mixed
846210221,13,friend,friend,match,1,553,mixed
846210221,14,friend,friend,match,1,427,mixed
846210221,15,self,self,match,1,513,mixed
846210221,16,self,self,match,1,424,mixed
846210221,17,stranger,self,nonmatch,1,466,mixed
846210221,18,friend,stranger,nonmatch,1,462,mixed
846210221,19,self,stranger,nonmatch,1,431,mixed
846210221,20,self,self,match,1,442,mixed
846210221,21,self,friend,nonmatch,1,430,mixed
846210221,22,friend,friend,match,1,628,mixed
846210221,23,friend,self,nonmatch,1,427,mixed
846210221,24,self,self,match,1,429,mixed
846210221,25,friend,stranger,nonmatch,1,490,mixed
846210221,26,self,self,match,1,383,mixed
846210221,27,stranger,friend,nonmatch,1,448,mixed
846210221,28,friend,self,nonmatch,1,583,mixed
846210221,29,stranger,friend,nonmatch,1,462,mixed
846210221,30,stranger,stranger,match,1,577,mixed
846210221,31,stranger,friend,nonmatch,1,632,mixed
846210221,32,stranger,stranger,match,1,420,mixed
846210221,33,self,self,match,1,496,mixed
846210221,34,friend,friend,match,1,520,mixed
846210221,35,friend,self,nonmatch,1,392,mixed
846210221,36,self,self,match,1,380,mixed
846210221,37,self,friend,nonmatch,1,437,mixed
846210221,38,self,self,match,1,379,mixed
846210221,39,self,friend,nonmatch,1,440,mixed
846210221,40,friend,stranger,nonmatch,1,482,mixed
846210221,41,self,friend,nonmatch,1,481,mixed
846210221,42,self,friend,nonmatch,1,681,mixed
846210221,43,self,stranger,nonmatch,1,459,mixed
846210221,44,stranger,self,nonmatch,1,391,mixed
846210221,45,stranger,stranger,match,1,386,mixed
846210221,46,stranger,stranger,match,1,388,mixed
846210221,47,self,stranger,nonmatch,1,411,mixed
846210221,48,self,self,match,1,390,mixed
846210221,49,friend,self,nonmatch,1,509,mixed
846210221,50,friend,friend,match,1,457,mixed
846210221,51,stranger,friend,nonmatch,1,536,mixed
846210221,52,stranger,stranger,match,1,403,mixed
846210221,53,friend,friend,match,1,575,mixed
846210221,54,stranger,stranger,match,1,461,mixed
846210221,55,stranger,stranger,match,1,397,mixed
846210221,56,stranger,self,nonmatch,1,460,mixed
846210221,57,friend,friend,match,1,385,mixed
846210221,58,stranger,stranger,match,1,460,mixed
846210221,59,stranger,friend,nonmatch,1,517,mixed
846210221,60,stranger,stranger,match,1,343,mixed
846210221,1,stranger,self,nonmatch,1,601,mixed
846210221,2,self,stranger,nonmatch,1,455,mixed
846210221,3,self,self,match,1,407,mixed
846210221,4,self,stranger,nonmatch,1,418,mixed
846210221,5,self,self,match,1,370,mixed
846210221,6,friend,friend,match,1,451,mixed
846210221,7,friend,stranger,nonmatch,1,398,mixed
846210221,8,friend,friend,match,1,431,mixed
846210221,9,friend,self,nonmatch,1,386,mixed
846210221,10,self,friend,nonmatch,0,408,mixed
846210221,11,friend,self,nonmatch,1,587,mixed
846210221,12,stranger,friend,nonmatch,1,765,mixed
846210221,13,friend,friend,match,1,554,mixed
846210221,14,stranger,stranger,match,1,581,mixed
846210221,15,self,friend,nonmatch,1,459,mixed
846210221,16,friend,self,nonmatch,1,555,mixed
846210221,17,self,self,match,1,349,mixed
846210221,18,self,self,match,1,482,mixed
846210221,19,stranger,friend,nonmatch,1,426,mixed
846210221,20,friend,friend,match,1,385,mixed
846210221,21,self,self,match,1,491,mixed
846210221,22,self,stranger,nonmatch,1,460,mixed
846210221,23,friend,friend,match,1,755,mixed
846210221,24,friend,stranger,nonmatch,1,519,mixed
846210221,25,self,self,match,1,356,mixed
846210221,26,stranger,stranger,match,1,487,mixed
846210221,27,stranger,stranger,match,1,340,mixed
846210221,28,stranger,self,nonmatch,1,381,mixed
846210221,29,self,self,match,1,317,mixed
846210221,30,stranger,stranger,match,1,467,mixed
846210221,31,stranger,stranger,match,1,441,mixed
846210221,32,stranger,stranger,match,1,403,mixed
846210221,33,friend,friend,match,1,553,mixed
846210221,34,friend,friend,match,0,481,mixed
846210221,35,stranger,self,nonmatch,1,552,mixed
846210221,36,friend,stranger,nonmatch,1,532,mixed
846210221,37,stranger,friend,nonmatch,1,686,mixed
846210221,38,stranger,stranger,match,1,476,mixed
846210221,39,self,self,match,1,334,mixed
846210221,40,stranger,friend,nonmatch,1,494,mixed
846210221,41,friend,stranger,nonmatch,1,733,mixed
846210221,42,self,friend,nonmatch,1,438,mixed
846210221,43,friend,friend,match,1,451,mixed
846210221,44,stranger,stranger,match,1,349,mixed
846210221,45,stranger,friend,nonmatch,1,389,mixed
846210221,46,self,self,match,1,355,mixed
846210221,47,friend,stranger,nonmatch,1,416,mixed
846210221,48,self,stranger,nonmatch,1,403,mixed
846210221,49,self,friend,nonmatch,1,388,mixed
846210221,50,self,self,match,1,392,mixed
846210221,51,friend,self,nonmatch,1,480,mixed
846210221,52,stranger,stranger,match,1,470,mixed
846210221,53,stranger,stranger,match,1,439,mixed
846210221,54,stranger,self,nonmatch,1,499,mixed
846210221,55,self,friend,nonmatch,1,474,mixed
846210221,56,stranger,self,nonmatch,1,400,mixed
846210221,57,friend,friend,match,1,559,mixed
846210221,58,friend,friend,match,1,404,mixed
846210221,59,self,stranger,nonmatch,1,354,mixed
846210221,60,friend,self,nonmatch,1,405,mixed
846210221,1,stranger,stranger,match,1,704,mixed
846210221,2,stranger,stranger,match,1,415,mixed
846210221,3,stranger,stranger,match,1,399,mixed
846210221,4,self,self,match,1,356,mixed
846210221,5,self,self,match,1,390,mixed
846210221,6,friend,friend,match,1,332,mixed
846210221,7,stranger,stranger,match,1,349,mixed
846210221,8,self,friend,nonmatch,1,393,mixed
846210221,9,stranger,friend,nonmatch,1,453,mixed
846210221,10,friend,stranger,nonmatch,1,615,mixed
846210221,11,friend,stranger,nonmatch,1,470,mixed
846210221,12,friend,friend,match,1,529,mixed
846210221,13,stranger,stranger,match,1,462,mixed
846210221,14,friend,friend,match,0,539,mixed
846210221,15,self,stranger,nonmatch,1,413,mixed
846210221,16,stranger,stranger,match,1,485,mixed
846210221,17,stranger,self,nonmatch,1,379,mixed
846210221,18,stranger,self,nonmatch,1,428,mixed
846210221,19,self,self,match,1,498,mixed
846210221,20,self,stranger,nonmatch,1,766,mixed
846210221,21,self,self,match,1,405,mixed
846210221,22,stranger,stranger,match,1,508,mixed
846210221,23,stranger,self,nonmatch,1,452,mixed
846210221,24,self,self,match,1,363,mixed
846210221,25,friend,friend,match,1,337,mixed
846210221,26,stranger,stranger,match,1,426,mixed
846210221,27,self,self,match,1,366,mixed
846210221,28,friend,friend,match,1,411,mixed
846210221,29,friend,friend,match,1,491,mixed
846210221,30,friend,stranger,nonmatch,1,429,mixed
846210221,31,friend,self,nonmatch,1,473,mixed
846210221,32,stranger,friend,nonmatch,1,449,mixed
846210221,33,friend,stranger,nonmatch,0,481,mixed
846210221,34,friend,stranger,nonmatch,1,484,mixed
846210221,35,friend,self,nonmatch,1,778,mixed
846210221,36,friend,friend,match,1,410,mixed
846210221,37,self,self,match,1,371,mixed
846210221,38,self,friend,nonmatch,1,415,mixed
846210221,39,friend,friend,match,1,841,mixed
846210221,40,friend,friend,match,1,473,mixed
846210221,41,stranger,friend,nonmatch,1,755,mixed
846210221,42,self,self,match,1,334,mixed
846210221,43,self,self,match,1,331,mixed
846210221,44,self,friend,nonmatch,1,368,mixed
846210221,45,self,stranger,nonmatch,1,404,mixed
846210221,46,self,self,match,1,404,mixed
846210221,47,friend,self,nonmatch,1,412,mixed
846210221,48,stranger,self,nonmatch,1,378,mixed
846210221,49,stranger,friend,nonmatch,1,413,mixed
846210221,50,friend,friend,match,1,570,mixed
846210221,51,self,stranger,nonmatch,1,350,mixed
846210221,52,self,stranger,nonmatch,1,343,mixed
846210221,53,friend,self,nonmatch,1,414,mixed
846210221,54,stranger,stranger,match,1,406,mixed
846210221,55,friend,self,nonmatch,1,386,mixed
846210221,56,self,friend,nonmatch,1,393,mixed
846210221,57,stranger,stranger,match,1,470,mixed
846210221,58,stranger,self,nonmatch,1,382,mixed
846210221,59,self,friend,nonmatch,1,375,mixed
846210221,60,stranger,friend,nonmatch,1,386,mixed
846210221,1,friend,friend,match,1,631,blocked
846210221,2,friend,friend,match,1,463,blocked
846210221,3,friend,self,nonmatch,1,379,blocked
846210221,4,friend,self,nonmatch,1,389,blocked
846210221,5,friend,friend,match,1,367,blocked
846210221,6,friend,self,nonmatch,1,389,blocked
846210221,7,friend,self,nonmatch,1,384,blocked
846210221,8,friend,stranger,nonmatch,1,527,blocked
846210221,9,friend,stranger,nonmatch,1,532,blocked
846210221,10,friend,friend,match,1,351,blocked
846210221,11,friend,self,nonmatch,1,451,blocked
846210221,12,friend,stranger,nonmatch,1,450,blocked
846210221,13,friend,stranger,nonmatch,1,358,blocked
846210221,14,friend,friend,match,1,315,blocked
846210221,15,friend,stranger,nonmatch,1,413,blocked
846210221,16,friend,stranger,nonmatch,1,427,blocked
846210221,17,friend,friend,match,1,391,blocked
846210221,18,friend,stranger,nonmatch,1,293,blocked
846210221,19,friend,stranger,nonmatch,1,421,blocked
846210221,20,friend,self,nonmatch,1,416,blocked
846210221,21,friend,friend,match,1,394,blocked
846210221,22,friend,self,nonmatch,1,336,blocked
846210221,23,friend,stranger,nonmatch,1,370,blocked
846210221,24,friend,self,nonmatch,1,378,blocked
846210221,25,friend,self,nonmatch,1,341,blocked
846210221,26,friend,friend,match,1,556,blocked
846210221,27,friend,friend,match,1,361,blocked
846210221,28,friend,self,nonmatch,1,359,blocked
846210221,29,friend,friend,match,1,431,blocked
846210221,30,friend,friend,match,1,459,blocked
846210221,31,friend,friend,match,1,359,blocked
846210221,32,friend,stranger,nonmatch,1,414,blocked
846210221,33,friend,self,nonmatch,1,375,blocked
846210221,34,friend,friend,match,1,419,blocked
846210221,35,friend,friend,match,1,395,blocked
846210221,36,friend,friend,match,1,355,blocked
846210221,37,friend,friend,match,1,384,blocked
846210221,38,friend,friend,match,1,346,blocked
846210221,39,friend,friend,match,1,330,blocked
846210221,40,friend,friend,match,1,337,blocked
846210221,41,friend,friend,match,1,288,blocked
846210221,42,friend,friend,match,1,351,blocked
846210221,43,friend,stranger,nonmatch,1,385,blocked
846210221,44,friend,friend,match,1,444,blocked
846210221,45,friend,friend,match,1,384,blocked
846210221,46,friend,self,nonmatch,1,369,blocked
846210221,47,friend,stranger,nonmatch,1,371,blocked
846210221,48,friend,friend,match,1,424,blocked
846210221,49,friend,friend,match,1,356,blocked
846210221,50,friend,stranger,nonmatch,1,359,blocked
846210221,51,friend,self,nonmatch,1,368,blocked
846210221,52,friend,friend,match,1,416,blocked
846210221,53,friend,friend,match,1,396,blocked
846210221,54,friend,friend,match,1,348,blocked
846210221,55,friend,friend,match,1,386,blocked
846210221,56,friend,self,nonmatch,1,422,blocked
846210221,57,friend,stranger,nonmatch,1,372,blocked
846210221,58,friend,friend,match,1,330,blocked
846210221,59,friend,self,nonmatch,1,387,blocked
846210221,60,friend,stranger,nonmatch,0,384,blocked
846210221,1,self,friend,nonmatch,1,374,blocked
846210221,2,self,stranger,nonmatch,1,356,blocked
846210221,3,self,self,match,1,371,blocked
846210221,4,self,self,match,1,387,blocked
846210221,5,self,friend,nonmatch,1,531,blocked
846210221,6,self,self,match,1,472,blocked
846210221,7,self,friend,nonmatch,1,346,blocked
846210221,8,self,self,match,1,387,blocked
846210221,9,self,self,match,1,355,blocked
846210221,10,self,stranger,nonmatch,1,307,blocked
846210221,11,self,friend,nonmatch,1,378,blocked
846210221,12,self,stranger,nonmatch,1,343,blocked
846210221,13,self,friend,nonmatch,1,398,blocked
846210221,14,self,self,match,1,307,blocked
846210221,15,self,stranger,nonmatch,1,374,blocked
846210221,16,self,self,match,1,371,blocked
846210221,17,self,self,match,1,407,blocked
846210221,18,self,self,match,1,332,blocked
846210221,19,self,self,match,1,387,blocked
846210221,20,self,self,match,1,274,blocked
846210221,21,self,stranger,nonmatch,1,352,blocked
846210221,22,self,self,match,1,336,blocked
846210221,23,self,friend,nonmatch,1,431,blocked
846210221,24,self,friend,nonmatch,1,404,blocked
846210221,25,self,self,match,1,355,blocked
846210221,26,self,friend,nonmatch,1,366,blocked
846210221,27,self,self,match,1,404,blocked
846210221,28,self,self,match,1,376,blocked
846210221,29,self,stranger,nonmatch,1,351,blocked
846210221,30,self,friend,nonmatch,1,386,blocked
846210221,31,self,self,match,1,307,blocked
846210221,32,self,self,match,1,420,blocked
846210221,33,self,stranger,nonmatch,1,340,blocked
846210221,34,self,friend,nonmatch,1,374,blocked
846210221,35,self,stranger,nonmatch,1,381,blocked
846210221,36,self,self,match,1,323,blocked
846210221,37,self,stranger,nonmatch,1,337,blocked
846210221,38,self,stranger,nonmatch,1,335,blocked
846210221,39,self,self,match,1,370,blocked
846210221,40,self,stranger,nonmatch,1,328,blocked
846210221,41,self,friend,nonmatch,1,349,blocked
846210221,42,self,friend,nonmatch,1,407,blocked
846210221,43,self,self,match,1,358,blocked
846210221,44,self,self,match,1,290,blocked
846210221,45,self,self,match,1,346,blocked
846210221,46,self,stranger,nonmatch,1,349,blocked
846210221,47,self,friend,nonmatch,1,353,blocked
846210221,48,self,self,match,1,432,blocked
846210221,49,self,stranger,nonmatch,1,344,blocked
846210221,50,self,friend,nonmatch,1,344,blocked
846210221,51,self,self,match,1,410,blocked
846210221,52,self,friend,nonmatch,1,319,blocked
846210221,53,self,stranger,nonmatch,1,363,blocked
846210221,54,self,self,match,1,355,blocked
846210221,55,self,self,match,1,409,blocked
846210221,56,self,self,match,1,337,blocked
846210221,57,self,self,match,1,342,blocked
846210221,58,self,self,match,1,329,blocked
846210221,59,self,stranger,nonmatch,1,377,blocked
846210221,60,self,self,match,1,375,blocked
452046834,1,stranger,self,nonmatch,1,704,mixed
452046834,2,self,self,match,1,710,mixed
452046834,3,self,stranger,nonmatch,1,616,mixed
452046834,4,stranger,friend,nonmatch,1,682,mixed
452046834,5,stranger,stranger,match,1,455,mixed
452046834,6,friend,friend,match,1,741,mixed
452046834,7,self,stranger,nonmatch,1,476,mixed
452046834,8,friend,friend,match,1,512,mixed
452046834,9,friend,stranger,nonmatch,1,545,mixed
452046834,10,friend,friend,match,1,651,mixed
452046834,11,friend,friend,match,1,497,mixed
452046834,12,friend,stranger,nonmatch,1,413,mixed
452046834,13,stranger,stranger,match,1,606,mixed
452046834,14,self,self,match,1,392,mixed
452046834,15,friend,self,nonmatch,1,678,mixed
452046834,16,self,self,match,1,504,mixed
452046834,17,stranger,stranger,match,1,376,mixed
452046834,18,friend,friend,match,1,502,mixed
452046834,19,self,friend,nonmatch,1,628,mixed
452046834,20,self,self,match,1,404,mixed
452046834,21,friend,friend,match,1,347,mixed
452046834,22,stranger,stranger,match,1,323,mixed
452046834,23,self,stranger,nonmatch,0,339,mixed
452046834,24,self,friend,nonmatch,0,365,mixed
452046834,25,friend,self,nonmatch,1,901,mixed
452046834,26,stranger,self,nonmatch,0,443,mixed
452046834,27,stranger,friend,nonmatch,1,876,mixed
452046834,28,self,self,match,1,472,mixed
452046834,29,self,self,match,1,348,mixed
452046834,30,stranger,self,nonmatch,1,434,mixed
452046834,31,stranger,friend,nonmatch,1,530,mixed
452046834,32,self,friend,nonmatch,0,353,mixed
452046834,33,self,friend,nonmatch,1,678,mixed
452046834,34,friend,friend,match,0,504,mixed
452046834,35,friend,stranger,nonmatch,1,700,mixed
452046834,36,stranger,stranger,match,1,683,mixed
452046834,37,self,self,match,1,359,mixed
452046834,38,stranger,stranger,match,0,695,mixed
452046834,39,friend,stranger,nonmatch,1,741,mixed
452046834,40,stranger,stranger,match,1,374,mixed
452046834,41,friend,stranger,nonmatch,1,630,mixed
452046834,42,stranger,stranger,match,1,466,mixed
452046834,43,self,friend,nonmatch,1,642,mixed
452046834,44,self,stranger,nonmatch,1,514,mixed
452046834,46,friend,self,nonmatch,0,739,mixed
452046834,47,stranger,stranger,match,1,685,mixed
452046834,48,friend,self,nonmatch,1,671,mixed
452046834,49,stranger,stranger,match,1,608,mixed
452046834,50,stranger,self,nonmatch,1,600,mixed
452046834,51,self,self,match,1,426,mixed
452046834,52,self,self,match,0,551,mixed
452046834,53,friend,self,nonmatch,1,538,mixed
452046834,54,friend,friend,match,1,781,mixed
452046834,55,friend,friend,match,1,467,mixed
452046834,56,self,stranger,nonmatch,1,523,mixed
452046834,57,stranger,self,nonmatch,0,629,mixed
452046834,58,stranger,friend,nonmatch,1,761,mixed
452046834,59,friend,friend,match,1,557,mixed
452046834,60,self,self,match,1,523,mixed
452046834,1,self,self,match,1,373,blocked
452046834,2,self,stranger,nonmatch,1,479,blocked
452046834,3,self,friend,nonmatch,1,575,blocked
452046834,4,self,self,match,1,497,blocked
452046834,5,self,stranger,nonmatch,1,483,blocked
452046834,6,self,friend,nonmatch,1,559,blocked
452046834,7,self,friend,nonmatch,1,445,blocked
452046834,8,self,stranger,nonmatch,1,448,blocked
452046834,9,self,friend,nonmatch,1,454,blocked
452046834,10,self,self,match,1,310,blocked
452046834,11,self,friend,nonmatch,1,426,blocked
452046834,12,self,self,match,1,319,blocked
452046834,13,self,friend,nonmatch,1,455,blocked
452046834,14,self,self,match,1,521,blocked
452046834,15,self,friend,nonmatch,1,367,blocked
452046834,16,self,stranger,nonmatch,1,439,blocked
452046834,17,self,self,match,1,335,blocked
452046834,18,self,self,match,1,461,blocked
452046834,19,self,self,match,1,307,blocked
452046834,20,self,self,match,1,283,blocked
452046834,21,self,self,match,1,356,blocked
452046834,22,self,self,match,1,252,blocked
452046834,23,self,self,match,1,318,blocked
452046834,24,self,friend,nonmatch,1,324,blocked
452046834,25,self,self,match,1,296,blocked
452046834,26,self,self,match,1,292,blocked
452046834,27,self,self,match,1,438,blocked
452046834,28,self,stranger,nonmatch,1,434,blocked
452046834,29,self,stranger,nonmatch,0,317,blocked
452046834,30,self,self,match,1,353,blocked
452046834,31,self,self,match,1,589,blocked
452046834,32,self,friend,nonmatch,1,525,blocked
452046834,33,self,self,match,1,368,blocked
452046834,34,self,friend,nonmatch,0,434,blocked
452046834,35,self,friend,nonmatch,1,600,blocked
452046834,36,self,self,match,1,396,blocked
452046834,37,self,friend,nonmatch,1,548,blocked
452046834,38,self,self,match,1,484,blocked
452046834,39,self,self,match,1,580,blocked
452046834,40,self,stranger,nonmatch,1,436,blocked
452046834,41,self,stranger,nonmatch,1,419,blocked
452046834,42,self,stranger,nonmatch,1,445,blocked
452046834,43,self,self,match,1,441,blocked
452046834,44,self,self,match,1,407,blocked
452046834,45,self,self,match,1,449,blocked
452046834,46,self,self,match,1,625,blocked
452046834,47,self,stranger,nonmatch,1,531,blocked
452046834,48,self,friend,nonmatch,1,557,blocked
452046834,49,self,stranger,nonmatch,1,453,blocked
452046834,50,self,self,match,1,386,blocked
452046834,51,self,self,match,1,502,blocked
452046834,52,self,friend,nonmatch,1,428,blocked
452046834,53,self,stranger,nonmatch,1,484,blocked
452046834,54,self,stranger,nonmatch,1,477,blocked
452046834,55,self,self,match,1,353,blocked
452046834,56,self,friend,nonmatch,0,329,blocked
452046834,57,self,stranger,nonmatch,1,365,blocked
452046834,58,self,stranger,nonmatch,1,487,blocked
452046834,59,self,self,match,1,353,blocked
452046834,60,self,self,match,1,559,blocked
452046834,1,stranger,friend,nonmatch,1,514,blocked
452046834,2,stranger,friend,nonmatch,1,480,blocked
452046834,3,stranger,stranger,match,0,326,blocked
452046834,4,stranger,stranger,match,1,339,blocked
452046834,5,stranger,self,nonmatch,0,395,blocked
452046834,6,stranger,self,nonmatch,1,470,blocked
452046834,7,stranger,friend,nonmatch,1,436,blocked
452046834,8,stranger,stranger,match,1,422,blocked
452046834,9,stranger,stranger,match,1,585,blocked
452046834,10,stranger,stranger,match,1,461,blocked
452046834,11,stranger,self,nonmatch,1,397,blocked
452046834,12,stranger,self,nonmatch,0,264,blocked
452046834,13,stranger,friend,nonmatch,1,1087,blocked
452046834,14,stranger,self,nonmatch,0,316,blocked
452046834,15,stranger,self,nonmatch,1,461,blocked
452046834,16,stranger,stranger,match,1,384,blocked
452046834,17,stranger,friend,nonmatch,1,450,blocked
452046834,18,stranger,self,nonmatch,1,456,blocked
452046834,19,stranger,stranger,match,1,322,blocked
452046834,20,stranger,stranger,match,1,565,blocked
452046834,21,stranger,friend,nonmatch,1,381,blocked
452046834,22,stranger,stranger,match,1,377,blocked
452046834,23,stranger,stranger,match,0,393,blocked
452046834,24,stranger,stranger,match,1,405,blocked
452046834,25,stranger,stranger,match,1,331,blocked
452046834,26,stranger,stranger,match,1,317,blocked
452046834,27,stranger,self,nonmatch,1,343,blocked
452046834,28,stranger,friend,nonmatch,1,529,blocked
452046834,29,stranger,friend,nonmatch,1,402,blocked
452046834,30,stranger,stranger,match,0,368,blocked
452046834,32,stranger,self,nonmatch,1,370,blocked
452046834,33,stranger,stranger,match,1,363,blocked
452046834,34,stranger,friend,nonmatch,1,509,blocked
452046834,35,stranger,stranger,match,0,255,blocked
452046834,36,stranger,stranger,match,1,310,blocked
452046834,37,stranger,self,nonmatch,1,373,blocked
452046834,38,stranger,stranger,match,1,379,blocked
452046834,39,stranger,friend,nonmatch,1,375,blocked
452046834,40,stranger,self,nonmatch,1,391,blocked
452046834,41,stranger,stranger,match,1,324,blocked
452046834,42,stranger,stranger,match,1,570,blocked
452046834,43,stranger,stranger,match,1,346,blocked
452046834,44,stranger,stranger,match,1,452,blocked
452046834,45,stranger,stranger,match,1,474,blocked
452046834,46,stranger,self,nonmatch,1,390,blocked
452046834,47,stranger,stranger,match,1,406,blocked
452046834,48,stranger,friend,nonmatch,1,492,blocked
452046834,49,stranger,stranger,match,1,355,blocked
452046834,50,stranger,friend,nonmatch,1,541,blocked
452046834,51,stranger,friend,nonmatch,1,517,blocked
452046834,52,stranger,self,nonmatch,1,433,blocked
452046834,53,stranger,stranger,match,1,286,blocked
452046834,54,stranger,friend,nonmatch,1,372,blocked
452046834,55,stranger,stranger,match,1,308,blocked
452046834,56,stranger,self,nonmatch,1,323,blocked
452046834,57,stranger,friend,nonmatch,1,389,blocked
452046834,58,stranger,stranger,match,0,322,blocked
452046834,60,stranger,self,nonmatch,0,354,blocked
452046834,1,friend,stranger,nonmatch,1,871,blocked
452046834,2,friend,friend,match,1,427,blocked
452046834,3,friend,stranger,nonmatch,1,392,blocked
452046834,4,friend,friend,match,1,528,blocked
452046834,5,friend,friend,match,1,391,blocked
452046834,6,friend,stranger,nonmatch,1,437,blocked
452046834,7,friend,friend,match,0,393,blocked
452046834,8,friend,self,nonmatch,1,949,blocked
452046834,9,friend,friend,match,1,351,blocked
452046834,10,friend,self,nonmatch,1,394,blocked
452046834,11,friend,friend,match,1,350,blocked
452046834,12,friend,friend,match,1,396,blocked
452046834,13,friend,stranger,nonmatch,1,332,blocked
452046834,14,friend,self,nonmatch,1,465,blocked
452046834,15,friend,self,nonmatch,1,411,blocked
452046834,16,friend,self,nonmatch,0,307,blocked
452046834,17,friend,self,nonmatch,1,443,blocked
452046834,18,friend,friend,match,1,525,blocked
452046834,19,friend,stranger,nonmatch,0,541,blocked
452046834,20,friend,friend,match,1,527,blocked
452046834,21,friend,friend,match,1,393,blocked
452046834,23,friend,self,nonmatch,1,432,blocked
452046834,24,friend,friend,match,1,518,blocked
452046834,25,friend,friend,match,1,384,blocked
452046834,26,friend,stranger,nonmatch,1,297,blocked
452046834,27,friend,stranger,nonmatch,1,473,blocked
452046834,28,friend,stranger,nonmatch,1,398,blocked
452046834,29,friend,friend,match,1,484,blocked
452046834,30,friend,stranger,nonmatch,1,350,blocked
452046834,31,friend,stranger,nonmatch,1,443,blocked
452046834,32,friend,friend,match,1,359,blocked
452046834,33,friend,friend,match,0,365,blocked
452046834,34,friend,stranger,nonmatch,1,451,blocked
452046834,35,friend,friend,match,1,314,blocked
452046834,36,friend,friend,match,1,320,blocked
452046834,37,friend,self,nonmatch,1,376,blocked
452046834,38,friend,stranger,nonmatch,1,402,blocked
452046834,39,friend,friend,match,1,394,blocked
452046834,40,friend,stranger,nonmatch,1,440,blocked
452046834,41,friend,self,nonmatch,1,566,blocked
452046834,42,friend,friend,match,1,332,blocked
452046834,43,friend,self,nonmatch,1,365,blocked
452046834,44,friend,friend,match,1,381,blocked
452046834,45,friend,friend,match,0,357,blocked
452046834,46,friend,stranger,nonmatch,0,413,blocked
452046834,47,friend,friend,match,1,407,blocked
452046834,48,friend,self,nonmatch,1,362,blocked
452046834,49,friend,friend,match,1,347,blocked
452046834,50,friend,friend,match,1,314,blocked
452046834,51,friend,friend,match,0,347,blocked
452046834,52,friend,self,nonmatch,1,522,blocked
452046834,53,friend,friend,match,1,329,blocked
452046834,54,friend,friend,match,1,335,blocked
452046834,55,friend,self,nonmatch,1,338,blocked
452046834,56,friend,friend,match,1,374,blocked
452046834,57,friend,friend,match,1,480,blocked
452046834,58,friend,self,nonmatch,1,346,blocked
452046834,59,friend,friend,match,1,382,blocked
452046834,60,friend,stranger,nonmatch,0,374,blocked
452046834,1,self,stranger,nonmatch,1,1087,mixed
452046834,2,self,friend,nonmatch,1,446,mixed
452046834,3,friend,stranger,nonmatch,1,682,mixed
452046834,4,friend,friend,match,1,524,mixed
452046834,5,self,self,match,1,450,mixed
452046834,6,friend,self,nonmatch,1,516,mixed
452046834,7,self,friend,nonmatch,1,482,mixed
452046834,8,self,self,match,1,415,mixed
452046834,9,self,self,match,1,391,mixed
452046834,10,stranger,friend,nonmatch,1,537,mixed
452046834,11,stranger,stranger,match,1,443,mixed
452046834,12,self,friend,nonmatch,1,526,mixed
452046834,13,stranger,self,nonmatch,1,551,mixed
452046834,14,friend,friend,match,1,467,mixed
452046834,15,stranger,stranger,match,1,403,mixed
452046834,16,stranger,friend,nonmatch,1,586,mixed
452046834,17,stranger,stranger,match,0,222,mixed
452046834,18,friend,friend,match,1,448,mixed
452046834,19,friend,friend,match,1,364,mixed
452046834,20,stranger,stranger,match,1,510,mixed
452046834,21,stranger,self,nonmatch,1,393,mixed
452046834,22,stranger,stranger,match,1,369,mixed
452046834,23,stranger,self,nonmatch,0,395,mixed
452046834,24,friend,stranger,nonmatch,0,531,mixed
452046834,25,friend,friend,match,1,403,mixed
452046834,26,friend,stranger,nonmatch,0,489,mixed
452046834,27,self,friend,nonmatch,1,475,mixed
452046834,28,stranger,stranger,match,1,591,mixed
452046834,29,self,stranger,nonmatch,1,444,mixed
452046834,30,stranger,friend,nonmatch,1,510,mixed
452046834,31,stranger,self,nonmatch,1,706,mixed
452046834,32,friend,friend,match,1,312,mixed
452046834,33,stranger,stranger,match,1,744,mixed
452046834,34,self,self,match,1,380,mixed
452046834,35,stranger,friend,nonmatch,1,656,mixed
452046834,36,self,stranger,nonmatch,1,442,mixed
452046834,37,friend,stranger,nonmatch,1,815,mixed
452046834,38,stranger,stranger,match,1,341,mixed
452046834,39,stranger,stranger,match,1,367,mixed
452046834,40,self,self,match,1,363,mixed
452046834,41,friend,self,nonmatch,1,486,mixed
452046834,42,self,self,match,1,342,mixed
452046834,43,friend,friend,match,1,408,mixed
452046834,44,stranger,friend,nonmatch,0,384,mixed
452046834,45,self,self,match,1,496,mixed
452046834,46,friend,self,nonmatch,1,542,mixed
452046834,47,friend,stranger,nonmatch,0,428,mixed
452046834,48,friend,self,nonmatch,1,584,mixed
452046834,49,friend,friend,match,1,380,mixed
452046834,50,self,self,match,1,373,mixed
452046834,51,stranger,self,nonmatch,1,479,mixed
452046834,52,self,self,match,1,415,mixed
452046834,53,friend,friend,match,1,441,mixed
452046834,54,stranger,stranger,match,1,583,mixed
452046834,55,friend,self,nonmatch,1,599,mixed
452046834,56,self,friend,nonmatch,1,545,mixed
452046834,57,self,stranger,nonmatch,1,511,mixed
452046834,58,self,self,match,1,394,mixed
452046834,59,self,stranger,nonmatch,1,520,mixed
452046834,60,friend,friend,match,1,426,mixed
452046834,1,self,friend,nonmatch,1,441,mixed
452046834,2,friend,friend,match,1,314,mixed
452046834,3,stranger,friend,nonmatch,1,450,mixed
452046834,4,stranger,stranger,match,1,326,mixed
452046834,5,friend,friend,match,1,409,mixed
452046834,6,friend,friend,match,1,395,mixed
452046834,7,stranger,friend,nonmatch,1,401,mixed
452046834,8,stranger,stranger,match,1,386,mixed
452046834,9,self,self,match,1,289,mixed
452046834,10,self,self,match,1,335,mixed
452046834,11,self,self,match,1,441,mixed
452046834,12,stranger,stranger,match,1,367,mixed
452046834,13,self,stranger,nonmatch,1,373,mixed
452046834,14,self,stranger,nonmatch,1,396,mixed
452046834,15,self,self,match,1,322,mixed
452046834,16,stranger,stranger,match,1,458,mixed
452046834,17,friend,friend,match,1,354,mixed
452046834,18,stranger,self,nonmatch,1,426,mixed
452046834,19,self,friend,nonmatch,1,692,mixed
452046834,20,self,self,match,1,318,mixed
452046834,21,self,self,match,1,264,mixed
452046834,22,friend,friend,match,1,457,mixed
452046834,23,self,stranger,nonmatch,1,403,mixed
452046834,24,stranger,stranger,match,0,509,mixed
452046834,25,friend,stranger,nonmatch,1,685,mixed
452046834,26,friend,stranger,nonmatch,1,708,mixed
452046834,27,friend,friend,match,1,364,mixed
452046834,28,stranger,stranger,match,1,850,mixed
452046834,29,self,friend,nonmatch,1,382,mixed
452046834,30,self,self,match,1,275,mixed
452046834,31,self,stranger,nonmatch,1,372,mixed
452046834,32,friend,friend,match,1,347,mixed
452046834,33,stranger,self,nonmatch,1,524,mixed
452046834,34,stranger,self,nonmatch,1,525,mixed
452046834,35,stranger,self,nonmatch,1,382,mixed
452046834,36,self,friend,nonmatch,1,558,mixed
452046834,37,stranger,self,nonmatch,1,704,mixed
452046834,38,self,stranger,nonmatch,1,497,mixed
452046834,39,friend,friend,match,1,403,mixed
452046834,40,friend,self,nonmatch,1,699,mixed
452046834,41,stranger,stranger,match,1,835,mixed
452046834,42,stranger,stranger,match,1,434,mixed
452046834,43,friend,stranger,nonmatch,1,500,mixed
452046834,44,friend,stranger,nonmatch,1,413,mixed
452046834,45,self,self,match,1,489,mixed
452046834,46,friend,self,nonmatch,1,485,mixed
452046834,47,stranger,friend,nonmatch,1,501,mixed
452046834,48,stranger,friend,nonmatch,1,553,mixed
452046834,49,friend,self,nonmatch,1,419,mixed
452046834,50,self,self,match,1,325,mixed
452046834,51,stranger,stranger,match,1,391,mixed
452046834,52,friend,self,nonmatch,1,434,mixed
452046834,53,self,self,match,1,270,mixed
452046834,54,friend,stranger,nonmatch,1,486,mixed
452046834,55,friend,friend,match,1,362,mixed
452046834,56,self,friend,nonmatch,1,525,mixed
452046834,57,friend,self,nonmatch,1,381,mixed
452046834,58,friend,friend,match,1,427,mixed
452046834,59,stranger,stranger,match,1,553,mixed
452046834,60,stranger,friend,nonmatch,0,275,mixed
